File: ft_ir/carageenan/output_ftir/export_data/final_combined_ftir_data.csv
Sample,Lab_02,Lab_03,Lab_08,Lab_09,Lab_10,Lab_11,Lab_12,Lab_13,Lab_16,Lab_17,Lab_19,Lab_20,Lab_21,Lab_22,Lab_45,Lab_65,standard
Label,Mendieta,Mendieta,Concession,Concession,Mendieta F,Mendieta F,Mendieta F,7H,7H,7H,7H,Powder Ilo,Powder Ilo,Powder Ilo,Concession,Mendieta,standard
4000,0.0059,0.0068,0.0079,0.0076,0.008,0.0075,0.0072,0.0042,0.0076,0.0044,0.0095,0.0115,0.01,0.0054,NA,NA,0.0132
3991,0.006,0.0068,0.008,0.0076,0.0079,0.0076,0.0073,0.0043,0.0077,0.0045,0.0096,0.0115,0.0099,0.0054,NA,NA,0.013
3982,0.006,0.0069,0.008,0.0077,0.0081,0.0077,0.0074,0.0044,0.0077,0.0044,0.0095,0.0115,0.0099,0.0054,NA,NA,0.013
3973,0.006,0.0069,0.008,0.0078,0.0081,0.0077,0.0074,0.0044,0.0077,0.0045,0.0096,0.0115,0.0099,0.0055,NA,NA,0.0131
3964,0.0061,0.0071,0.0081,0.0078,0.0082,0.0077,0.0075,0.0045,0.0078,0.0045,0.0096,0.0116,0.01,0.0055,NA,NA,0.013
3955,0.0061,0.0071,0.0081,0.0077,0.0082,0.0078,0.0074,0.0044,0.0078,0.0044,0.0095,0.0116,0.01,0.0055,NA,NA,0.013
3946,0.0063,0.0072,0.008,0.0079,0.0082,0.0077,0.0074,0.0045,0.0078,0.0045,0.0097,0.0116,0.0101,0.0056,NA,NA,0.0129
3937,0.0061,0.0071,0.0081,0.0077,0.0082,0.0077,0.0074,0.0046,0.0078,0.0045,0.0097,0.0115,0.01,0.0055,NA,NA,0.0128
3928,0.0063,0.0073,0.0082,0.0078,0.0081,0.0078,0.0075,0.0046,0.0078,0.0046,0.0097,0.0115,0.0101,0.0057,NA,NA,0.0129
3919,0.0065,0.0076,0.0082,0.0079,0.0082,0.0078,0.0074,0.0046,0.0078,0.0044,0.0097,0.0116,0.0101,0.0057,NA,NA,0.0127
3910,0.0061,0.007,0.0081,0.0078,0.0082,0.0077,0.0074,0.0046,0.0077,0.0045,0.0096,0.0114,0.0099,0.0056,NA,NA,0.0128
3901,0.0069,0.008,0.0086,0.008,0.0082,0.0079,0.0075,0.0049,0.0077,0.0044,0.0097,0.0117,0.0101,0.0061,NA,NA,0.0128
3892,0.0064,0.0073,0.0083,0.0078,0.0082,0.0077,0.0073,0.0048,0.0077,0.0045,0.0096,0.0115,0.01,0.0058,NA,NA,0.0127
3883,0.0067,0.0077,0.0087,0.0081,0.0083,0.0079,0.0076,0.005,0.0076,0.0044,0.0096,0.0115,0.01,0.0061,NA,NA,0.0128
3874,0.0066,0.0077,0.0084,0.008,0.0084,0.008,0.0076,0.005,0.0077,0.0044,0.0097,0.0114,0.0101,0.0062,NA,NA,0.0129
3865,0.0069,0.008,0.0084,0.008,0.0083,0.0079,0.0076,0.0048,0.0076,0.0044,0.0097,0.0115,0.01,0.0061,NA,NA,0.0127
3856,0.0062,0.0074,0.0087,0.0081,0.0083,0.008,0.0075,0.0056,0.0073,0.004,0.0093,0.0112,0.0099,0.0066,NA,NA,0.0127
3847,0.0067,0.0078,0.0083,0.0079,0.0085,0.0079,0.0075,0.0047,0.0076,0.0045,0.0095,0.0114,0.0099,0.0059,NA,NA,0.0125
3838,0.0068,0.0079,0.0085,0.008,0.0083,0.008,0.0075,0.0053,0.0075,0.0042,0.0095,0.0113,0.01,0.0066,NA,NA,0.0127
3829,0.0067,0.0078,0.0083,0.008,0.0084,0.008,0.0075,0.005,0.0076,0.0045,0.0096,0.0114,0.01,0.0061,NA,NA,0.0125
3820,0.0068,0.0079,0.0084,0.0081,0.0085,0.0081,0.0078,0.0055,0.0076,0.0042,0.0096,0.0113,0.01,0.0066,NA,NA,0.0128
3811,0.0066,0.0076,0.0084,0.0081,0.0086,0.0082,0.0077,0.005,0.0079,0.0046,0.0096,0.0114,0.0101,0.0062,NA,NA,0.0123
3802,0.007,0.0081,0.0085,0.0082,0.0088,0.0084,0.0079,0.0055,0.0079,0.0046,0.0096,0.0113,0.0101,0.0066,NA,NA,0.0124
3793,0.0067,0.0077,0.0085,0.0083,0.0087,0.0082,0.0078,0.005,0.008,0.0048,0.0096,0.0113,0.0099,0.0062,NA,NA,0.012
3784,0.0068,0.0077,0.0087,0.0084,0.0089,0.0084,0.0079,0.0051,0.0081,0.005,0.0098,0.0115,0.0102,0.0063,NA,NA,0.012
3775,0.0069,0.008,0.0088,0.0085,0.009,0.0085,0.008,0.0053,0.0083,0.0051,0.01,0.0118,0.0103,0.0064,NA,NA,0.0119
3766,0.0073,0.0085,0.0091,0.0088,0.0091,0.0087,0.0083,0.0055,0.0084,0.0052,0.01,0.0118,0.0105,0.0067,NA,NA,0.0119
3757,0.0076,0.0088,0.0094,0.0091,0.0094,0.009,0.0086,0.0059,0.0085,0.0052,0.0104,0.0121,0.0108,0.007,NA,NA,0.0122
3748,0.0081,0.0097,0.0099,0.0092,0.0096,0.0093,0.0088,0.0069,0.0083,0.0051,0.0103,0.0122,0.011,0.0083,NA,NA,0.0122
3739,0.0084,0.0098,0.0099,0.0094,0.0098,0.0093,0.009,0.0065,0.0089,0.0056,0.0106,0.0124,0.0112,0.0077,NA,NA,0.0119
3730,0.0084,0.0096,0.01,0.0097,0.0101,0.0096,0.0092,0.0066,0.009,0.0058,0.0106,0.0124,0.0113,0.0077,NA,NA,0.0115
3721,0.0085,0.0097,0.0104,0.0101,0.0105,0.0101,0.0097,0.0066,0.0096,0.0063,0.011,0.0127,0.0115,0.0077,NA,NA,0.0113
3712,0.009,0.0103,0.0111,0.0107,0.0111,0.0111,0.0106,0.0075,0.0101,0.0067,0.0116,0.0132,0.0123,0.0088,NA,NA,0.0117
3703,0.0093,0.0104,0.0115,0.0112,0.012,0.0118,0.0113,0.0078,0.0109,0.0075,0.0119,0.0135,0.0125,0.0091,NA,NA,0.0114
3694,0.0102,0.0115,0.0127,0.0124,0.0133,0.0132,0.0127,0.0089,0.012,0.0085,0.0128,0.0145,0.0137,0.0103,NA,NA,0.0116
3685,0.0117,0.013,0.0142,0.014,0.0151,0.0151,0.0146,0.0103,0.0137,0.0101,0.0139,0.0155,0.015,0.012,NA,NA,0.0116
3676,0.0137,0.0153,0.0165,0.0162,0.0173,0.0173,0.0172,0.0126,0.0155,0.0118,0.0155,0.017,0.017,0.0146,NA,NA,0.0123
3667,0.0164,0.0181,0.0195,0.0196,0.0212,0.0209,0.0214,0.0152,0.0192,0.0151,0.0179,0.0194,0.0196,0.0171,NA,NA,0.0129
3658,0.0194,0.0214,0.0231,0.0233,0.0251,0.0251,0.026,0.0185,0.0228,0.0185,0.0206,0.022,0.0227,0.0206,NA,NA,0.0138
3649,0.0243,0.0267,0.0286,0.0289,0.0306,0.0307,0.0328,0.0233,0.0277,0.0225,0.0245,0.0256,0.0272,0.0259,NA,NA,0.0156
3640,0.0285,0.0311,0.0334,0.0341,0.0365,0.0365,0.0397,0.0275,0.0334,0.0281,0.0286,0.0295,0.0318,0.0303,NA,NA,0.0171
3631,0.0337,0.0366,0.0393,0.0401,0.0421,0.0427,0.0467,0.033,0.0384,0.0323,0.0326,0.0333,0.0367,0.0361,NA,NA,0.0191
3622,0.0394,0.0427,0.0457,0.0469,0.0491,0.0498,0.0554,0.0382,0.0448,0.038,0.0374,0.0377,0.0424,0.0417,NA,NA,0.0216
3613,0.0454,0.049,0.0522,0.0536,0.0559,0.0569,0.0639,0.0438,0.0511,0.0433,0.0421,0.0423,0.0482,0.0475,NA,NA,0.0242
3604,0.0506,0.0546,0.0586,0.0604,0.0628,0.064,0.0725,0.0493,0.0577,0.0488,0.0467,0.0467,0.0541,0.0531,NA,NA,0.0269
3595,0.0558,0.0602,0.0649,0.0667,0.0692,0.0708,0.0803,0.0542,0.0632,0.0538,0.051,0.0506,0.0591,0.0588,NA,NA,0.0296
3586,0.0613,0.0663,0.0714,0.0734,0.0761,0.0777,0.0886,0.0597,0.0693,0.0589,0.0554,0.0549,0.0646,0.0643,NA,NA,0.0328
3577,0.0661,0.0711,0.0771,0.0792,0.0821,0.0839,0.0959,0.0645,0.0747,0.0638,0.0595,0.0587,0.0692,0.0696,NA,NA,0.0357
3568,0.0713,0.0767,0.0829,0.0852,0.088,0.0899,0.1024,0.0693,0.0799,0.0681,0.0635,0.0624,0.0736,0.0747,NA,NA,0.0375
3559,0.0759,0.0818,0.0892,0.0913,0.095,0.0967,0.1108,0.0745,0.0861,0.0739,0.0676,0.0666,0.0789,0.0802,NA,NA,0.0401
3550,0.0809,0.0868,0.0948,0.097,0.101,0.1029,0.1178,0.0792,0.0915,0.0784,0.0717,0.0704,0.0835,0.0852,NA,NA,0.0421
3541,0.0855,0.0919,0.1008,0.1028,0.1076,0.109,0.1251,0.084,0.0974,0.0836,0.0756,0.0743,0.0881,0.0904,NA,NA,0.0443
3532,0.09,0.0965,0.1063,0.1081,0.1134,0.1146,0.1315,0.0886,0.1024,0.0878,0.0792,0.0776,0.0921,0.0949,NA,NA,0.0463
3523,0.0948,0.1017,0.1121,0.1139,0.12,0.121,0.1389,0.0933,0.1082,0.093,0.0832,0.0816,0.0967,0.1004,NA,NA,0.0482
3514,0.0989,0.1061,0.1175,0.1191,0.126,0.1267,0.1452,0.0979,0.1134,0.0976,0.0868,0.0849,0.1008,0.1052,NA,NA,0.0494
3505,0.1036,0.1111,0.1231,0.1245,0.1321,0.1325,0.1516,0.1024,0.1187,0.1023,0.0904,0.0884,0.1048,0.1102,NA,NA,0.0507
3496,0.1077,0.1155,0.1285,0.1298,0.1385,0.1385,0.1584,0.1068,0.1241,0.1069,0.0941,0.0918,0.1089,0.1148,NA,NA,0.0521
3487,0.1119,0.1199,0.1338,0.1347,0.1442,0.1441,0.1644,0.1112,0.1289,0.1115,0.0973,0.095,0.1126,0.1194,NA,NA,0.0537
3478,0.1159,0.1241,0.1389,0.1396,0.1501,0.1496,0.1706,0.1152,0.1339,0.1159,0.1007,0.098,0.1164,0.1239,NA,NA,0.0551
3469,0.1201,0.1286,0.1439,0.1445,0.1558,0.1551,0.1765,0.1194,0.1389,0.1202,0.104,0.1012,0.1199,0.1283,NA,NA,0.0565
3460,0.1236,0.1325,0.1485,0.1488,0.161,0.1601,0.1819,0.1231,0.1431,0.124,0.1068,0.1038,0.1232,0.132,NA,NA,0.0577
3451,0.127,0.136,0.1529,0.1529,0.1658,0.1646,0.1868,0.1263,0.147,0.1275,0.1093,0.1061,0.1257,0.1356,NA,NA,0.0591
3442,0.1301,0.1396,0.1571,0.1566,0.1706,0.1691,0.1917,0.1295,0.1509,0.1312,0.1117,0.1082,0.1286,0.1391,NA,NA,0.0604
3433,0.1331,0.1426,0.161,0.1602,0.1749,0.1733,0.196,0.1326,0.1545,0.1344,0.114,0.1103,0.1309,0.1424,NA,NA,0.0618
3424,0.1355,0.1451,0.1643,0.163,0.1784,0.1763,0.1992,0.1346,0.1569,0.1366,0.1154,0.1115,0.1325,0.1446,NA,NA,0.063
3415,0.1375,0.1473,0.167,0.1654,0.1814,0.1793,0.2022,0.1367,0.1594,0.1388,0.1169,0.1127,0.1341,0.1465,NA,NA,0.0642
3406,0.139,0.1489,0.1692,0.1672,0.1836,0.1813,0.2043,0.1379,0.161,0.1401,0.1176,0.1132,0.1347,0.1478,NA,NA,0.0651
3397,0.14,0.1499,0.1708,0.1682,0.1852,0.1827,0.2056,0.1386,0.162,0.1411,0.1181,0.1134,0.135,0.1484,NA,NA,0.0656
3388,0.1401,0.1501,0.1713,0.1681,0.1854,0.1829,0.2054,0.1386,0.1619,0.1411,0.1176,0.1128,0.1343,0.1482,NA,NA,0.0657
3379,0.1398,0.1496,0.1714,0.1676,0.1852,0.1824,0.2046,0.1381,0.1613,0.1407,0.1169,0.1119,0.1334,0.1475,NA,NA,0.0657
3370,0.1391,0.1488,0.1708,0.1666,0.1842,0.1812,0.2031,0.137,0.1602,0.1395,0.116,0.1106,0.132,0.1461,NA,NA,0.0655
3361,0.1375,0.1469,0.1693,0.1643,0.182,0.1787,0.2002,0.1349,0.1578,0.1375,0.114,0.1086,0.1295,0.1438,NA,NA,0.0651
3352,0.1356,0.1446,0.1674,0.1617,0.1793,0.1758,0.1967,0.1327,0.1553,0.135,0.1119,0.1064,0.127,0.141,NA,NA,0.0645
3343,0.1333,0.1419,0.1648,0.1586,0.1757,0.1723,0.1927,0.13,0.1521,0.1321,0.1095,0.1039,0.1241,0.1379,NA,NA,0.0639
3334,0.1306,0.1389,0.1617,0.1552,0.1719,0.1684,0.1882,0.127,0.1485,0.1287,0.1068,0.101,0.121,0.1343,NA,NA,0.0631
3325,0.128,0.1359,0.1584,0.1518,0.168,0.1642,0.1838,0.124,0.1449,0.1255,0.1042,0.0986,0.1179,0.1307,NA,NA,0.0625
3316,0.1251,0.1327,0.1549,0.1481,0.1636,0.1598,0.1792,0.1209,0.1414,0.1221,0.1014,0.0958,0.1148,0.1274,NA,NA,0.0618
3307,0.1227,0.1299,0.1518,0.1447,0.1598,0.1559,0.175,0.1181,0.1383,0.119,0.0991,0.0935,0.1122,0.1241,NA,NA,0.061
3298,0.1203,0.1269,0.1484,0.1414,0.156,0.152,0.1708,0.1152,0.135,0.1158,0.0965,0.091,0.1091,0.1208,NA,NA,0.0603
3289,0.1178,0.1242,0.1455,0.1383,0.1524,0.1483,0.167,0.1126,0.132,0.1129,0.0943,0.0888,0.1067,0.1178,NA,NA,0.0596
3280,0.1153,0.1213,0.1423,0.1351,0.1487,0.1445,0.163,0.11,0.1289,0.1099,0.0919,0.0864,0.1039,0.1146,NA,NA,0.0589
3271,0.113,0.1186,0.1391,0.132,0.1454,0.1408,0.1593,0.1074,0.126,0.1072,0.0896,0.0844,0.1014,0.1117,NA,NA,0.0582
3262,0.1105,0.1156,0.1355,0.1286,0.1415,0.1369,0.1551,0.1047,0.1228,0.1041,0.0873,0.0821,0.0986,0.1085,NA,NA,0.0573
3253,0.1076,0.1125,0.1319,0.125,0.1375,0.1328,0.1507,0.1015,0.1195,0.1009,0.0847,0.0797,0.0956,0.1052,NA,NA,0.0565
3244,0.1046,0.1089,0.1278,0.1212,0.1332,0.1284,0.146,0.0986,0.1159,0.0975,0.082,0.077,0.0923,0.1017,NA,NA,0.0555
3235,0.1013,0.1052,0.1235,0.117,0.1285,0.1235,0.1406,0.095,0.112,0.0939,0.0791,0.0745,0.0891,0.0978,NA,NA,0.0542
3226,0.0976,0.1009,0.1186,0.1122,0.1234,0.118,0.1348,0.0912,0.1075,0.0899,0.0758,0.0713,0.0851,0.0935,NA,NA,0.053
3217,0.0936,0.0965,0.1137,0.1074,0.118,0.1124,0.1285,0.0871,0.1029,0.0854,0.0723,0.068,0.0811,0.0891,NA,NA,0.0516
3208,0.0895,0.0918,0.1085,0.1022,0.1122,0.1065,0.1219,0.0827,0.0981,0.0808,0.0688,0.0647,0.077,0.0843,NA,NA,0.05
3199,0.0851,0.0869,0.1029,0.0969,0.1063,0.1003,0.1151,0.0781,0.0931,0.0759,0.0653,0.0614,0.0727,0.0794,NA,NA,0.0484
3190,0.0807,0.0821,0.0974,0.0915,0.1003,0.094,0.1084,0.0737,0.088,0.0712,0.0616,0.0579,0.0686,0.0746,NA,NA,0.0468
3181,0.0763,0.0772,0.0918,0.0861,0.0943,0.0878,0.1015,0.0692,0.0831,0.0664,0.0581,0.0546,0.0645,0.0698,NA,NA,0.0452
3172,0.0721,0.0726,0.0867,0.0811,0.0888,0.0821,0.095,0.0651,0.0782,0.062,0.0546,0.0514,0.0604,0.0653,NA,NA,0.0437
3163,0.0679,0.0679,0.0814,0.076,0.0832,0.0762,0.0886,0.0609,0.0736,0.0574,0.0513,0.0483,0.0566,0.0607,NA,NA,0.042
3154,0.064,0.0638,0.0766,0.0714,0.0781,0.0709,0.0827,0.057,0.0693,0.0534,0.0483,0.0455,0.0531,0.0567,NA,NA,0.0407
3145,0.0602,0.0594,0.0719,0.067,0.073,0.0659,0.077,0.0532,0.065,0.0494,0.0455,0.0429,0.0497,0.0527,NA,NA,0.0391
3136,0.0566,0.0557,0.0674,0.0626,0.0685,0.0611,0.0718,0.0498,0.0611,0.0457,0.0427,0.0403,0.0464,0.049,NA,NA,0.0378
3127,0.0533,0.0522,0.0634,0.0589,0.0642,0.0567,0.067,0.0467,0.0573,0.0424,0.04,0.0379,0.0435,0.0457,NA,NA,0.0363
3118,0.0502,0.049,0.0595,0.0552,0.0603,0.0527,0.0625,0.0436,0.0541,0.0392,0.038,0.036,0.041,0.0426,NA,NA,0.035
3109,0.0472,0.0458,0.0558,0.0519,0.0565,0.0491,0.0582,0.0407,0.0508,0.0365,0.0357,0.034,0.0386,0.0397,NA,NA,0.034
3100,0.0446,0.0431,0.0525,0.0488,0.0531,0.0457,0.0544,0.0382,0.0479,0.0338,0.0337,0.0321,0.0363,0.037,NA,NA,0.0328
3091,0.0422,0.0404,0.0493,0.046,0.0499,0.0426,0.0508,0.0358,0.0452,0.0315,0.0319,0.0304,0.0342,0.0348,NA,NA,0.0317
3082,0.0396,0.0379,0.0465,0.0433,0.0471,0.0398,0.0476,0.0337,0.0428,0.0292,0.0302,0.029,0.0322,0.0324,NA,NA,0.0307
3073,0.0377,0.0358,0.0437,0.041,0.0444,0.0371,0.0446,0.0316,0.0403,0.0272,0.0285,0.0274,0.0303,0.0304,NA,NA,0.0297
3064,0.0356,0.0338,0.0414,0.0387,0.042,0.0348,0.0419,0.0297,0.0383,0.0253,0.0272,0.0262,0.0289,0.0284,NA,NA,0.0289
3055,0.0337,0.0319,0.0391,0.0365,0.0396,0.0326,0.0393,0.028,0.0362,0.0237,0.0258,0.0249,0.0272,0.0268,NA,NA,0.0281
3046,0.0321,0.0302,0.0369,0.0346,0.0374,0.0306,0.037,0.0263,0.0344,0.0221,0.0246,0.024,0.026,0.0252,NA,NA,0.0274
3037,0.0305,0.0286,0.035,0.0329,0.0356,0.0289,0.0349,0.025,0.0326,0.0208,0.0235,0.0229,0.0247,0.0239,NA,NA,0.0269
3028,0.0292,0.0274,0.0335,0.0315,0.0339,0.0275,0.0332,0.0237,0.031,0.0195,0.0226,0.022,0.0236,0.0226,NA,NA,0.0264
3019,0.0281,0.0263,0.0319,0.0301,0.0323,0.0261,0.0315,0.0225,0.0297,0.0184,0.0218,0.0213,0.0228,0.0215,NA,NA,0.0261
3010,0.0271,0.0254,0.0309,0.0293,0.0312,0.0253,0.0306,0.0216,0.0287,0.0175,0.0211,0.0207,0.022,0.0207,NA,NA,0.0259
3001,0.0262,0.0246,0.03,0.0285,0.03,0.0245,0.0296,0.0209,0.0277,0.0168,0.0206,0.0201,0.0215,0.02,NA,NA,0.0259
2992,0.026,0.0245,0.0294,0.028,0.0292,0.0242,0.0292,0.0206,0.0271,0.0162,0.0203,0.0199,0.0214,0.0197,NA,NA,0.0263
2983,0.026,0.0246,0.0295,0.0281,0.029,0.0244,0.0293,0.0205,0.0269,0.016,0.0204,0.02,0.0216,0.0196,NA,NA,0.0269
2974,0.0263,0.0251,0.03,0.0287,0.029,0.0249,0.0295,0.0205,0.0271,0.0159,0.0207,0.0201,0.022,0.0198,NA,NA,0.0276
2965,0.0265,0.0254,0.0307,0.0292,0.0292,0.0254,0.0297,0.0206,0.0274,0.0158,0.0209,0.0201,0.0222,0.02,NA,NA,0.0285
2956,0.0264,0.0254,0.0314,0.0297,0.0294,0.0259,0.0298,0.0201,0.0275,0.0155,0.0209,0.02,0.0222,0.0199,NA,NA,0.0287
2947,0.026,0.0251,0.0317,0.0295,0.029,0.0257,0.0294,0.0197,0.0269,0.015,0.0208,0.0198,0.022,0.0195,NA,NA,0.0286
2938,0.0261,0.0253,0.0328,0.0304,0.0295,0.0264,0.0291,0.0195,0.0272,0.0147,0.021,0.0198,0.0221,0.0196,NA,NA,0.0283
2929,0.0268,0.0262,0.0349,0.0325,0.0312,0.028,0.0291,0.0194,0.0285,0.0146,0.0217,0.0199,0.0225,0.02,NA,NA,0.0281
2920,0.0272,0.0269,0.0363,0.0338,0.0326,0.0295,0.029,0.0197,0.0294,0.0147,0.0221,0.02,0.0227,0.0203,NA,NA,0.0284
2911,0.0254,0.0252,0.0329,0.0302,0.0294,0.0265,0.0274,0.0185,0.0264,0.0139,0.0206,0.0191,0.0215,0.0189,NA,NA,0.0291
2902,0.0238,0.0234,0.0304,0.0276,0.0269,0.0241,0.0261,0.0175,0.0243,0.0131,0.0194,0.0182,0.0202,0.0177,NA,NA,0.0293
2893,0.0225,0.0219,0.0285,0.0255,0.0253,0.0224,0.0248,0.0164,0.0227,0.0123,0.0184,0.0174,0.0191,0.0166,NA,NA,0.0288
2884,0.0211,0.0207,0.0266,0.024,0.0237,0.0209,0.0232,0.0156,0.0214,0.0116,0.0175,0.0168,0.0182,0.0156,NA,NA,0.0277
2875,0.0202,0.0197,0.0253,0.0229,0.0228,0.0199,0.0218,0.015,0.0207,0.011,0.017,0.0163,0.0175,0.015,NA,NA,0.0268
2866,0.0193,0.0188,0.0243,0.0221,0.022,0.0191,0.0204,0.014,0.0199,0.0104,0.0163,0.0157,0.0166,0.0141,NA,NA,0.0261
2857,0.019,0.0186,0.0246,0.0228,0.0225,0.0194,0.0198,0.0135,0.0201,0.0099,0.0162,0.0153,0.0162,0.014,NA,NA,0.0253
2848,0.0183,0.0179,0.0241,0.0221,0.0222,0.0192,0.0189,0.0129,0.0199,0.0097,0.0158,0.0149,0.0156,0.0133,NA,NA,0.0245
2839,0.0162,0.0156,0.0201,0.0182,0.0187,0.0157,0.0169,0.0116,0.0168,0.0087,0.014,0.0139,0.014,0.0117,NA,NA,0.0238
2830,0.0152,0.0147,0.0187,0.0169,0.0174,0.0146,0.0161,0.011,0.0157,0.0084,0.0133,0.0134,0.0133,0.0112,NA,NA,0.0234
2821,0.0146,0.0141,0.0177,0.0161,0.0167,0.0138,0.0154,0.0106,0.0151,0.0079,0.0129,0.0131,0.0128,0.0106,NA,NA,0.0228
2812,0.0141,0.0136,0.0171,0.0155,0.016,0.0133,0.0148,0.0101,0.0145,0.0077,0.0125,0.0127,0.0123,0.0102,NA,NA,0.0224
2803,0.0136,0.0132,0.0164,0.015,0.0155,0.0128,0.0143,0.0098,0.014,0.0074,0.0122,0.0124,0.012,0.01,NA,NA,0.0221
2794,0.0133,0.0129,0.016,0.0146,0.0151,0.0125,0.0139,0.0095,0.0135,0.0072,0.012,0.0122,0.0117,0.0096,NA,NA,0.0219
2785,0.0129,0.0126,0.0155,0.0141,0.0146,0.0122,0.0134,0.0093,0.0131,0.0071,0.0116,0.0119,0.0113,0.0094,NA,NA,0.0218
2776,0.0125,0.0122,0.0151,0.0137,0.0143,0.0118,0.013,0.009,0.0129,0.0068,0.0115,0.0118,0.0112,0.0092,NA,NA,0.0215
2767,0.0122,0.0119,0.0148,0.0134,0.014,0.0116,0.0128,0.0087,0.0125,0.0066,0.0113,0.0116,0.0109,0.0089,NA,NA,0.0212
2758,0.0119,0.0116,0.0144,0.0131,0.0137,0.0113,0.0123,0.0086,0.0122,0.0065,0.0111,0.0115,0.0107,0.0087,NA,NA,0.021
2749,0.0117,0.0115,0.0141,0.0128,0.0135,0.0112,0.0121,0.0083,0.012,0.0064,0.011,0.0114,0.0105,0.0085,NA,NA,0.0209
2740,0.0114,0.0112,0.0139,0.0126,0.0132,0.011,0.012,0.0081,0.0117,0.0062,0.0107,0.0112,0.0104,0.0083,NA,NA,0.0207
2731,0.0112,0.0111,0.0138,0.0125,0.013,0.011,0.0119,0.0081,0.0116,0.0063,0.0107,0.0112,0.0102,0.0083,NA,NA,0.0207
2722,0.011,0.011,0.0135,0.0122,0.0128,0.0108,0.0115,0.0079,0.0113,0.0062,0.0105,0.0111,0.0101,0.0082,NA,NA,0.0206
2713,0.0108,0.0108,0.0132,0.0119,0.0125,0.0106,0.0113,0.0078,0.0111,0.0061,0.0104,0.0109,0.0099,0.008,NA,NA,0.0205
2704,0.0107,0.0106,0.013,0.0118,0.0124,0.0104,0.0111,0.0076,0.0109,0.0059,0.0103,0.0108,0.0098,0.0079,NA,NA,0.0203
2695,0.0105,0.0105,0.0129,0.0115,0.0122,0.0104,0.011,0.0076,0.0108,0.0059,0.0101,0.0108,0.0097,0.0078,NA,NA,0.0202
2686,0.0103,0.0103,0.0126,0.0115,0.0121,0.0103,0.0108,0.0073,0.0106,0.0058,0.01,0.0106,0.0095,0.0078,NA,NA,0.0202
2677,0.0102,0.0102,0.0124,0.0113,0.012,0.0102,0.0106,0.0073,0.0104,0.0057,0.01,0.0106,0.0094,0.0076,NA,NA,0.02
2668,0.0101,0.0101,0.0123,0.0112,0.0118,0.0101,0.0106,0.0072,0.0103,0.0057,0.0099,0.0106,0.0093,0.0076,NA,NA,0.0199
2659,0.0106,0.0106,0.0126,0.0115,0.0121,0.0104,0.0108,0.0077,0.0106,0.006,0.0104,0.0109,0.0096,0.008,NA,NA,0.0202
2650,0.0105,0.0105,0.0125,0.0114,0.012,0.0104,0.0107,0.0076,0.0104,0.0061,0.0103,0.0109,0.0095,0.0079,NA,NA,0.0201
2641,0.0103,0.0103,0.0122,0.0112,0.0119,0.0101,0.0104,0.0074,0.0102,0.0058,0.0102,0.0107,0.0093,0.0078,NA,NA,0.0199
2632,0.0099,0.01,0.0119,0.0109,0.0116,0.01,0.0101,0.0071,0.01,0.0057,0.01,0.0107,0.0091,0.0075,NA,NA,0.0195
2623,0.0097,0.0098,0.0116,0.0105,0.0113,0.0097,0.0097,0.0069,0.0096,0.0054,0.0096,0.0103,0.0088,0.0072,NA,NA,0.0192
2614,0.0094,0.0095,0.0112,0.0102,0.011,0.0094,0.0096,0.0066,0.0093,0.0054,0.0094,0.0102,0.0085,0.0072,NA,NA,0.0192
2605,0.0091,0.0092,0.0109,0.0099,0.0107,0.0091,0.0093,0.0066,0.0091,0.005,0.0091,0.0099,0.0083,0.0068,NA,NA,0.0187
2596,0.0089,0.0091,0.0107,0.0098,0.0105,0.009,0.009,0.0063,0.0088,0.0049,0.0088,0.0096,0.008,0.0066,NA,NA,0.0185
2587,0.0087,0.009,0.0105,0.0097,0.0104,0.0089,0.0089,0.0061,0.0088,0.0048,0.0087,0.0096,0.0079,0.0063,NA,NA,0.0182
2578,0.0083,0.0086,0.0103,0.0093,0.0102,0.0087,0.0087,0.0059,0.0085,0.0046,0.0085,0.0094,0.0078,0.0063,NA,NA,0.018
2569,0.0082,0.0085,0.0101,0.0091,0.0099,0.0084,0.0086,0.0058,0.0084,0.0046,0.0084,0.0092,0.0076,0.0063,NA,NA,0.018
2560,0.0082,0.0083,0.0099,0.0089,0.0098,0.0084,0.0083,0.0057,0.0082,0.0045,0.0083,0.0091,0.0074,0.0061,NA,NA,0.0178
2551,0.0078,0.0082,0.0099,0.009,0.0098,0.0085,0.0084,0.0055,0.0081,0.0044,0.0082,0.009,0.0073,0.006,NA,NA,0.0177
2542,0.0079,0.0081,0.0096,0.0088,0.0097,0.0083,0.0082,0.0054,0.0081,0.0047,0.008,0.0089,0.0072,0.006,NA,NA,0.0176
2533,0.0078,0.0082,0.0096,0.0088,0.0097,0.0083,0.0082,0.0056,0.0077,0.0044,0.008,0.0088,0.0072,0.0059,NA,NA,0.0175
2524,0.0075,0.0079,0.0095,0.0087,0.0096,0.0083,0.0081,0.0055,0.0078,0.0043,0.0077,0.0087,0.007,0.0059,NA,NA,0.0174
2515,0.0075,0.0079,0.0095,0.0087,0.0096,0.0083,0.0082,0.0054,0.0079,0.0045,0.0079,0.0087,0.0071,0.0059,NA,NA,0.0173
2506,0.0076,0.008,0.0094,0.0087,0.0095,0.0082,0.0081,0.0052,0.0078,0.0044,0.0078,0.0088,0.0071,0.0058,NA,NA,0.0172
2497,0.0075,0.0079,0.0094,0.0085,0.0096,0.0082,0.0081,0.0053,0.0078,0.0043,0.008,0.0086,0.007,0.0057,NA,NA,0.0172
2488,0.0075,0.0079,0.0094,0.0085,0.0094,0.008,0.0079,0.0053,0.0076,0.0042,0.0075,0.0085,0.0069,0.0057,NA,NA,0.0172
2479,0.0074,0.0076,0.0093,0.0085,0.0096,0.008,0.008,0.0052,0.0075,0.0044,0.0076,0.0083,0.0067,0.0057,NA,NA,0.0171
2470,0.0073,0.0078,0.0093,0.0084,0.0094,0.0079,0.0078,0.0051,0.0076,0.0044,0.0075,0.0084,0.0068,0.0057,NA,NA,0.017
2461,0.0076,0.0079,0.0094,0.0086,0.0095,0.0082,0.008,0.0053,0.0077,0.0046,0.0078,0.0086,0.0068,0.0058,NA,NA,0.0169
2452,0.0077,0.0082,0.0093,0.0087,0.0096,0.0082,0.0081,0.0057,0.0079,0.0045,0.0079,0.0086,0.0069,0.0059,NA,NA,0.0169
2443,0.0076,0.0079,0.0093,0.0085,0.0096,0.008,0.0078,0.0053,0.0077,0.0045,0.0076,0.0085,0.0067,0.0058,NA,NA,0.0167
2434,0.0075,0.0077,0.0091,0.0083,0.0094,0.008,0.0079,0.0052,0.0076,0.0044,0.0075,0.0083,0.0067,0.0057,NA,NA,0.0165
2425,0.0072,0.0076,0.0092,0.0083,0.0095,0.008,0.0078,0.005,0.0077,0.0045,0.0075,0.0083,0.0067,0.0057,NA,NA,0.0165
2416,0.0073,0.0076,0.009,0.0084,0.0094,0.0079,0.0078,0.0052,0.0075,0.0043,0.0075,0.0082,0.0065,0.0056,NA,NA,0.0164
2407,0.0072,0.0076,0.009,0.0083,0.0094,0.0081,0.0079,0.0052,0.0076,0.0044,0.0074,0.0082,0.0067,0.0056,NA,NA,0.0163
2398,0.0071,0.0076,0.0089,0.0084,0.0094,0.008,0.0079,0.0051,0.0077,0.0045,0.0071,0.0081,0.0065,0.0057,NA,NA,0.0161
2389,0.0072,0.0076,0.009,0.0084,0.0095,0.008,0.008,0.0052,0.0078,0.0045,0.0073,0.0082,0.0066,0.0056,NA,NA,0.0161
2380,0.0068,0.007,0.0092,0.0082,0.0088,0.0075,0.0077,0.0048,0.0077,0.0043,0.0072,0.0082,0.0065,0.0053,NA,NA,0.0157
2371,0.007,0.0073,0.0095,0.0085,0.009,0.0075,0.0081,0.0048,0.0079,0.0046,0.0076,0.0085,0.0068,0.0053,NA,NA,0.0158
2362,0.0072,0.0075,0.0099,0.009,0.0091,0.0078,0.0084,0.0051,0.0083,0.0049,0.008,0.0089,0.0071,0.0053,NA,NA,0.0158
2353,0.0076,0.0078,0.01,0.0091,0.0104,0.0082,0.0087,0.0053,0.0086,0.0046,0.0081,0.0085,0.0074,0.0058,NA,NA,0.016
2344,0.0083,0.0084,0.0108,0.0098,0.0108,0.0087,0.0093,0.0059,0.009,0.0055,0.0087,0.0094,0.0078,0.0063,NA,NA,0.0161
2335,0.0086,0.0089,0.011,0.0103,0.0105,0.0093,0.0096,0.0061,0.0095,0.0058,0.0091,0.0096,0.0081,0.0068,NA,NA,0.0168
2326,0.0104,0.0103,0.0126,0.0116,0.0119,0.0106,0.011,0.0076,0.0106,0.007,0.0106,0.011,0.0094,0.0081,NA,NA,0.018
2317,0.0101,0.0101,0.0122,0.0113,0.0119,0.0105,0.0108,0.0075,0.0105,0.0072,0.0103,0.0109,0.0093,0.0081,NA,NA,0.0178
2308,0.0098,0.0096,0.0119,0.011,0.0114,0.0102,0.0105,0.0074,0.0104,0.0069,0.0099,0.0106,0.0091,0.0075,NA,NA,0.0173
2299,0.0101,0.0101,0.0122,0.0114,0.0123,0.0108,0.011,0.0077,0.0104,0.0072,0.0099,0.0106,0.0091,0.008,NA,NA,0.0175
2290,0.0111,0.0113,0.0127,0.0122,0.0132,0.0117,0.0119,0.0088,0.0112,0.0079,0.0108,0.0112,0.0098,0.0091,NA,NA,0.0182
2281,0.011,0.0114,0.0127,0.0121,0.0131,0.0118,0.0119,0.0089,0.0111,0.0076,0.0108,0.0111,0.0096,0.0092,NA,NA,0.0179
2272,0.0104,0.0108,0.0121,0.0116,0.013,0.0114,0.0115,0.0084,0.0104,0.0075,0.0099,0.0104,0.009,0.0087,NA,NA,0.0175
2263,0.0101,0.0104,0.0117,0.0109,0.0121,0.011,0.0111,0.008,0.0104,0.0071,0.0096,0.0102,0.0088,0.0081,NA,NA,0.0168
2254,0.0095,0.0104,0.0113,0.0106,0.012,0.0108,0.0109,0.0076,0.01,0.007,0.0095,0.0098,0.0084,0.0082,NA,NA,0.0167
2245,0.0095,0.0102,0.0115,0.0107,0.0123,0.011,0.011,0.0079,0.0105,0.0072,0.0095,0.0102,0.0086,0.0083,NA,NA,0.0167
2236,0.01,0.0105,0.0117,0.0112,0.0125,0.0113,0.0114,0.008,0.0103,0.0076,0.0098,0.0101,0.0086,0.0086,NA,NA,0.017
2227,0.0097,0.0101,0.0114,0.0108,0.0126,0.0113,0.0112,0.0082,0.0097,0.0074,0.0092,0.0097,0.0083,0.0085,NA,NA,0.0168
2218,0.0097,0.0105,0.0119,0.0112,0.0124,0.0115,0.0114,0.0083,0.0098,0.0073,0.0092,0.0095,0.0081,0.0087,NA,NA,0.0164
2209,0.0098,0.0106,0.0112,0.0108,0.0122,0.0114,0.011,0.0081,0.0102,0.0077,0.0091,0.0094,0.0081,0.0088,NA,NA,0.0167
2200,0.0095,0.0105,0.0117,0.0112,0.0124,0.0118,0.0118,0.0085,0.0103,0.0081,0.0095,0.0096,0.0083,0.0091,NA,NA,0.0166
2191,0.0101,0.0107,0.012,0.0114,0.013,0.012,0.0117,0.0087,0.0103,0.0081,0.0095,0.0102,0.0086,0.0095,NA,NA,0.0165
2182,0.01,0.0105,0.0116,0.0111,0.013,0.0116,0.0112,0.0075,0.0102,0.0081,0.009,0.0093,0.0079,0.0087,NA,NA,0.0159
2173,0.0092,0.0102,0.012,0.0109,0.0131,0.0113,0.0116,0.0077,0.0098,0.007,0.0087,0.0086,0.0077,0.0085,NA,NA,0.0152
2164,0.0118,0.0124,0.013,0.0125,0.0143,0.0129,0.0127,0.0102,0.012,0.0086,0.0112,0.0113,0.0096,0.0099,NA,NA,0.0166
2155,0.0033,0.0042,0.006,0.0049,0.0083,0.0066,0.0067,0.0035,0.0061,0.0039,0.0041,0.0042,0.0037,0.0035,NA,NA,0.01
2146,0.0062,0.0072,0.0093,0.0088,0.0109,0.0094,0.0097,0.0055,0.0086,0.0053,0.0063,0.0067,0.0057,0.0054,NA,NA,0.0122
2137,0.007,0.0078,0.01,0.0093,0.0115,0.01,0.0102,0.0056,0.0086,0.0064,0.0064,0.0071,0.006,0.0068,NA,NA,0.0132
2128,0.0081,0.0094,0.0108,0.0104,0.0124,0.0111,0.0113,0.0067,0.0098,0.0075,0.0076,0.0081,0.0075,0.008,NA,NA,0.0141
2119,0.0104,0.0112,0.0127,0.0123,0.0141,0.0129,0.013,0.0088,0.0113,0.0089,0.0093,0.0097,0.0089,0.0094,NA,NA,0.0153
2110,0.0111,0.0121,0.0136,0.0128,0.0149,0.0137,0.0138,0.0098,0.0124,0.0095,0.0106,0.0107,0.0099,0.0102,NA,NA,0.016
2101,0.0117,0.0124,0.0133,0.0127,0.0148,0.0135,0.0137,0.0093,0.0121,0.0094,0.0103,0.0109,0.0096,0.0101,NA,NA,0.0156
2092,0.0103,0.0113,0.0127,0.0122,0.0141,0.0128,0.0131,0.0086,0.0116,0.0093,0.01,0.01,0.0091,0.0098,NA,NA,0.0153
2083,0.0112,0.0118,0.0133,0.0126,0.0147,0.0136,0.0138,0.0096,0.012,0.0097,0.0106,0.0105,0.0095,0.0103,NA,NA,0.0158
2074,0.0113,0.0118,0.0129,0.0127,0.0144,0.0132,0.0134,0.0094,0.012,0.0093,0.0103,0.0108,0.0095,0.0102,NA,NA,0.0152
2065,0.0102,0.0112,0.0123,0.0117,0.0137,0.0127,0.0126,0.0093,0.0112,0.009,0.0097,0.0103,0.0088,0.0093,NA,NA,0.0148
2056,0.0106,0.0115,0.0122,0.0116,0.0137,0.0127,0.0125,0.0085,0.0112,0.0099,0.0094,0.01,0.0087,0.0099,NA,NA,0.015
2047,0.0108,0.0111,0.0114,0.011,0.0139,0.0127,0.0116,0.0084,0.0112,0.0094,0.0101,0.0109,0.0092,0.0101,NA,NA,0.0149
2038,0.0091,0.01,0.0109,0.0102,0.0129,0.0115,0.0102,0.0077,0.0104,0.0086,0.0093,0.0103,0.0082,0.0088,NA,NA,0.0144
2029,0.0078,0.009,0.0087,0.0084,0.0106,0.009,0.008,0.0065,0.0084,0.0076,0.0069,0.0079,0.0063,0.0067,NA,NA,0.0124
2020,0.0069,0.0084,0.0095,0.009,0.011,0.0098,0.0084,0.0059,0.0091,0.0073,0.0082,0.0082,0.0068,0.0068,NA,NA,0.0133
2011,0.0074,0.0085,0.0097,0.0092,0.0113,0.01,0.0083,0.0066,0.0093,0.0064,0.0078,0.0083,0.0064,0.0063,NA,NA,0.013
2002,0.0059,0.0077,0.0086,0.008,0.0102,0.0091,0.0077,0.0055,0.0077,0.0068,0.0066,0.0078,0.006,0.0069,NA,NA,0.0134
1993,0.008,0.01,0.0105,0.0097,0.0119,0.0104,0.0097,0.0067,0.0089,0.0076,0.0077,0.0089,0.0071,0.0082,NA,NA,0.0144
1984,0.0097,0.0101,0.0112,0.01,0.0119,0.0112,0.0097,0.0073,0.009,0.0079,0.0087,0.0096,0.0075,0.009,NA,NA,0.0147
1975,0.006,0.007,0.0087,0.0079,0.0101,0.0087,0.0078,0.0045,0.0079,0.0055,0.0064,0.0078,0.0057,0.0057,NA,NA,0.0126
1966,0.006,0.0077,0.0088,0.0075,0.0099,0.009,0.0078,0.0045,0.0071,0.0053,0.0058,0.007,0.0054,0.0062,NA,NA,0.0128
1957,0.0058,0.0071,0.0078,0.0075,0.0093,0.0081,0.0068,0.0041,0.0065,0.0052,0.0053,0.0065,0.0049,0.0054,NA,NA,0.0125
1948,0.0066,0.0079,0.0088,0.0083,0.0101,0.0091,0.0078,0.0044,0.0075,0.0055,0.0068,0.0077,0.006,0.0059,NA,NA,0.0136
1939,0.0071,0.0078,0.0086,0.0083,0.0097,0.0086,0.0077,0.0043,0.0077,0.0055,0.0066,0.0074,0.006,0.0059,NA,NA,0.0134
1930,0.0068,0.0078,0.0093,0.0088,0.0101,0.0091,0.0081,0.0044,0.0078,0.0058,0.0068,0.0075,0.0062,0.0064,NA,NA,0.0136
1921,0.0074,0.0085,0.0099,0.0089,0.0104,0.0095,0.0082,0.0048,0.0081,0.0059,0.0073,0.0081,0.0067,0.0066,NA,NA,0.0141
1912,0.0077,0.0085,0.0099,0.0091,0.0106,0.0097,0.0082,0.0049,0.0084,0.0058,0.0075,0.0081,0.0067,0.0069,NA,NA,0.0141
1903,0.0076,0.0088,0.0097,0.0092,0.0108,0.0094,0.0079,0.0048,0.0082,0.0058,0.0074,0.008,0.0066,0.0067,NA,NA,0.0139
1894,0.0077,0.0086,0.0097,0.0092,0.0106,0.0096,0.0078,0.0047,0.0084,0.0058,0.0075,0.0081,0.0068,0.0066,NA,NA,0.0136
1885,0.0077,0.0086,0.0099,0.0093,0.0106,0.0096,0.0076,0.0047,0.0083,0.006,0.0074,0.008,0.0067,0.0068,NA,NA,0.0137
1876,0.0079,0.0087,0.0098,0.0094,0.0108,0.0096,0.0074,0.0044,0.0082,0.006,0.0075,0.008,0.0067,0.0068,NA,NA,0.0135
1867,0.0077,0.0087,0.0098,0.0091,0.0108,0.0095,0.0072,0.0044,0.0083,0.0058,0.0075,0.0081,0.0068,0.0066,NA,NA,0.0135
1858,0.0079,0.0087,0.01,0.0095,0.0109,0.0098,0.0074,0.0044,0.0085,0.0062,0.0078,0.0083,0.007,0.0069,NA,NA,0.0136
1849,0.008,0.0088,0.0102,0.0096,0.011,0.0099,0.0073,0.0043,0.0088,0.0061,0.0077,0.0082,0.0069,0.0069,NA,NA,0.0134
1840,0.0084,0.0092,0.0105,0.0098,0.0111,0.01,0.0072,0.0043,0.0088,0.0063,0.0078,0.0083,0.0073,0.0071,NA,NA,0.0136
1831,0.0083,0.0091,0.0106,0.0098,0.0114,0.0102,0.0073,0.0046,0.0091,0.0066,0.0082,0.0087,0.0076,0.0073,NA,NA,0.0138
1822,0.0086,0.0095,0.011,0.0104,0.0117,0.0106,0.0073,0.0045,0.0093,0.0068,0.0084,0.0088,0.0078,0.0078,NA,NA,0.0138
1813,0.0088,0.0097,0.0111,0.0105,0.0119,0.0107,0.0073,0.0043,0.0095,0.0068,0.0083,0.0088,0.0079,0.0078,NA,NA,0.0137
1804,0.0094,0.0104,0.0118,0.0111,0.0126,0.0114,0.0074,0.0046,0.0101,0.0073,0.0091,0.0094,0.0085,0.0085,NA,NA,0.014
1795,0.0101,0.0111,0.0123,0.0119,0.0133,0.012,0.0076,0.0045,0.0108,0.0078,0.0097,0.0101,0.0094,0.009,NA,NA,0.0141
1786,0.0107,0.0115,0.0129,0.0124,0.0137,0.0125,0.0073,0.0044,0.0112,0.008,0.0098,0.0102,0.0094,0.0092,NA,NA,0.0142
1777,0.0109,0.012,0.0133,0.0128,0.0142,0.0129,0.0074,0.0043,0.0116,0.0085,0.01,0.0104,0.0098,0.0096,NA,NA,0.0141
1768,0.012,0.0129,0.0142,0.0138,0.015,0.0139,0.0075,0.0046,0.0124,0.0092,0.0107,0.0109,0.0105,0.0103,NA,NA,0.0145
1759,0.0127,0.0136,0.0153,0.015,0.0162,0.0149,0.008,0.0048,0.0135,0.0098,0.0114,0.0116,0.0111,0.011,NA,NA,0.0144
1750,0.0142,0.0153,0.0174,0.017,0.0184,0.017,0.0095,0.0055,0.015,0.0108,0.0125,0.0125,0.0124,0.0122,NA,NA,0.0146
1741,0.0159,0.0167,0.0198,0.0194,0.0204,0.0189,0.0107,0.0061,0.017,0.012,0.0138,0.0136,0.0139,0.0135,NA,NA,0.0147
1732,0.0176,0.0183,0.0213,0.0209,0.0224,0.0208,0.0121,0.0072,0.0187,0.0134,0.0149,0.0147,0.0152,0.0152,NA,NA,0.0149
1723,0.0199,0.0202,0.0235,0.023,0.0247,0.0231,0.0143,0.0088,0.0212,0.0155,0.0164,0.016,0.0171,0.0172,NA,NA,0.0152
1714,0.0232,0.0235,0.0264,0.026,0.028,0.0261,0.0176,0.0115,0.0245,0.0185,0.0189,0.0185,0.0201,0.02,NA,NA,0.0163
1705,0.0266,0.0267,0.03,0.0299,0.0323,0.0301,0.022,0.015,0.0289,0.0222,0.0219,0.0213,0.0237,0.0237,NA,NA,0.0174
1696,0.0329,0.0331,0.0362,0.0368,0.0394,0.0372,0.0297,0.0205,0.0359,0.0279,0.0268,0.0257,0.0294,0.0299,NA,NA,0.0194
1687,0.04,0.0401,0.0438,0.045,0.0478,0.0459,0.0386,0.0277,0.0444,0.0346,0.0326,0.031,0.0364,0.0371,NA,NA,0.0226
1678,0.0502,0.0503,0.0545,0.0563,0.0593,0.0575,0.0511,0.0372,0.0554,0.0442,0.0404,0.0384,0.0461,0.047,NA,NA,0.027
1669,0.0615,0.0623,0.0671,0.0692,0.0727,0.0712,0.0662,0.0479,0.0677,0.0551,0.0492,0.0468,0.057,0.0584,NA,NA,0.0322
1660,0.0728,0.074,0.0796,0.0825,0.0863,0.0857,0.0823,0.0584,0.0804,0.0659,0.0582,0.0549,0.068,0.07,NA,NA,0.0374
1651,0.0826,0.0847,0.0912,0.0946,0.0993,0.0997,0.0988,0.0682,0.0921,0.0769,0.0663,0.0624,0.078,0.0808,NA,NA,0.043
1642,0.0888,0.091,0.0977,0.1012,0.1062,0.1077,0.1077,0.0734,0.0982,0.0821,0.0705,0.0662,0.0826,0.0868,NA,NA,0.0454
1633,0.0891,0.0914,0.0985,0.1019,0.1076,0.1096,0.1109,0.073,0.0989,0.0836,0.0706,0.0661,0.0824,0.0872,NA,NA,0.0465
1624,0.0829,0.0844,0.091,0.0945,0.1001,0.1021,0.1029,0.0655,0.0914,0.0768,0.0652,0.0604,0.0748,0.0804,NA,NA,0.0449
1615,0.0716,0.0719,0.0782,0.0814,0.0869,0.088,0.0889,0.0536,0.0792,0.0658,0.0561,0.0516,0.0635,0.0684,NA,NA,0.0412
1606,0.0605,0.0596,0.0657,0.0686,0.0731,0.0733,0.072,0.042,0.0671,0.0543,0.0473,0.0433,0.0527,0.0567,NA,NA,0.0362
1597,0.0515,0.0497,0.0553,0.0582,0.0618,0.0611,0.056,0.0329,0.0573,0.0452,0.0402,0.0367,0.0444,0.0475,NA,NA,0.0323
1588,0.0449,0.0427,0.0479,0.0506,0.0536,0.0523,0.0429,0.0263,0.0506,0.0389,0.0353,0.0322,0.0387,0.0411,NA,NA,0.0293
1579,0.0406,0.0385,0.0437,0.0464,0.0489,0.0476,0.034,0.0223,0.0472,0.0348,0.0327,0.0296,0.0354,0.0373,NA,NA,0.0267
1570,0.0377,0.0357,0.0398,0.0421,0.0443,0.0429,0.0272,0.0191,0.0435,0.032,0.0303,0.0277,0.033,0.0343,NA,NA,0.0249
1561,0.0356,0.0335,0.0371,0.0398,0.041,0.0403,0.0229,0.0173,0.0415,0.03,0.0293,0.0268,0.0319,0.0327,NA,NA,0.0236
1552,0.0348,0.0327,0.0355,0.0377,0.0393,0.0383,0.0197,0.0156,0.0397,0.0286,0.0278,0.0256,0.0307,0.0314,NA,NA,0.0222
1543,0.0333,0.0316,0.0344,0.0367,0.0384,0.0377,0.0176,0.0137,0.0387,0.0274,0.0273,0.0251,0.0304,0.0305,NA,NA,0.0213
1534,0.0314,0.0299,0.0322,0.0339,0.0356,0.0346,0.0144,0.011,0.0356,0.0257,0.0252,0.0236,0.0286,0.0288,NA,NA,0.0202
1525,0.0296,0.0284,0.0302,0.0315,0.0333,0.0325,0.012,0.009,0.0333,0.0244,0.024,0.0226,0.0275,0.0275,NA,NA,0.0196
1516,0.0281,0.0271,0.0294,0.0301,0.0321,0.0312,0.0101,0.007,0.0313,0.0232,0.023,0.0217,0.0267,0.0264,NA,NA,0.0192
1507,0.0267,0.0261,0.0289,0.0291,0.0316,0.0309,0.0091,0.0058,0.0304,0.0225,0.0229,0.0216,0.0266,0.0261,NA,NA,0.0189
1498,0.0262,0.0257,0.0285,0.0286,0.0306,0.03,0.0072,0.0044,0.0294,0.022,0.0223,0.021,0.0267,0.0259,NA,NA,0.0186
1489,0.0265,0.0265,0.0298,0.0291,0.0314,0.0312,0.0074,0.0044,0.0293,0.0222,0.0226,0.0216,0.0282,0.0268,NA,NA,0.02
1480,0.0284,0.0286,0.0326,0.0322,0.0334,0.0342,0.0088,0.0055,0.0308,0.0233,0.0241,0.0227,0.0309,0.0291,NA,NA,0.0224
1471,0.0308,0.0313,0.0365,0.0356,0.0361,0.0377,0.0108,0.0068,0.0333,0.0246,0.0262,0.0245,0.0344,0.0314,NA,NA,0.0247
1462,0.0319,0.0323,0.0384,0.0369,0.0372,0.0391,0.0122,0.0072,0.0345,0.0254,0.0271,0.0253,0.0363,0.0329,NA,NA,0.0253
1453,0.033,0.0335,0.0398,0.038,0.0382,0.0406,0.0131,0.0081,0.0355,0.0262,0.0281,0.0263,0.0385,0.0344,NA,NA,0.0266
1444,0.0334,0.0338,0.0404,0.0384,0.0384,0.0413,0.0127,0.0081,0.0356,0.0267,0.0283,0.0266,0.0395,0.0352,NA,NA,0.0278
1435,0.0346,0.0351,0.0424,0.0398,0.0395,0.0434,0.0138,0.0088,0.0369,0.0277,0.0295,0.0276,0.0413,0.0368,NA,NA,0.0295
1426,0.0354,0.0358,0.044,0.0409,0.0409,0.0446,0.0159,0.0093,0.0384,0.0288,0.0305,0.0284,0.0422,0.0379,NA,NA,0.0301
1417,0.0363,0.0363,0.0445,0.0419,0.0416,0.0453,0.017,0.0098,0.0397,0.0294,0.0313,0.0291,0.0422,0.0386,NA,NA,0.0304
1408,0.0367,0.0363,0.0443,0.0424,0.0416,0.0451,0.0173,0.0096,0.0401,0.0301,0.0314,0.0291,0.0413,0.0385,NA,NA,0.0295
1399,0.0364,0.0361,0.0433,0.0418,0.041,0.0443,0.0173,0.009,0.0395,0.0298,0.0311,0.0287,0.0399,0.0376,NA,NA,0.0292
1390,0.0366,0.0367,0.0435,0.0422,0.041,0.0444,0.0158,0.0084,0.0389,0.0298,0.0311,0.0288,0.0393,0.0374,NA,NA,0.0303
1381,0.0409,0.0425,0.0488,0.0474,0.0449,0.0499,0.0187,0.012,0.0415,0.0322,0.0343,0.0316,0.0433,0.0408,NA,NA,0.0358
1372,0.0419,0.0439,0.0512,0.0491,0.0463,0.0517,0.0214,0.0126,0.0423,0.0328,0.0354,0.0324,0.0442,0.0416,NA,NA,0.0382
1363,0.0401,0.0421,0.0498,0.047,0.045,0.0499,0.0211,0.0106,0.0409,0.0317,0.0341,0.0312,0.0419,0.0399,NA,NA,0.0363
1354,0.0397,0.0417,0.0489,0.0466,0.0444,0.049,0.0189,0.0096,0.0405,0.0317,0.0338,0.0309,0.0412,0.0393,NA,NA,0.0358
1345,0.0372,0.0388,0.0463,0.0435,0.0421,0.0458,0.0135,0.0065,0.0382,0.0302,0.0317,0.0292,0.0383,0.0368,NA,NA,0.0331
1336,0.036,0.0377,0.0453,0.042,0.0414,0.0442,0.0091,0.0049,0.0368,0.0291,0.0308,0.0282,0.0368,0.0353,NA,NA,0.0314
1327,0.0361,0.0378,0.0446,0.0418,0.0409,0.044,0.007,0.0042,0.0363,0.0289,0.0305,0.0281,0.0365,0.0349,NA,NA,0.0304
1318,0.0368,0.0388,0.0455,0.0431,0.0422,0.0453,0.0078,0.0045,0.0372,0.0294,0.0314,0.0287,0.0374,0.0357,NA,NA,0.0292
1309,0.0379,0.04,0.0461,0.0445,0.0428,0.0463,0.0083,0.0045,0.0379,0.03,0.0323,0.0295,0.0386,0.0365,NA,NA,0.0295
1300,0.0404,0.043,0.0484,0.048,0.0447,0.0498,0.0117,0.0062,0.04,0.0318,0.0344,0.0318,0.0419,0.0391,NA,NA,0.0323
1291,0.0473,0.051,0.0554,0.0572,0.0509,0.0592,0.0231,0.0121,0.0461,0.0364,0.0404,0.0373,0.0506,0.0457,NA,NA,0.0401
1282,0.0588,0.0636,0.0679,0.0727,0.0618,0.0751,0.0471,0.0223,0.0566,0.0442,0.0507,0.0466,0.0656,0.0568,NA,NA,0.053
1273,0.0742,0.0808,0.0847,0.0934,0.0764,0.0963,0.0798,0.0366,0.071,0.0551,0.0643,0.0591,0.0866,0.0721,NA,NA,0.0703
1264,0.0887,0.0979,0.0999,0.1124,0.0896,0.1161,0.1106,0.0499,0.0843,0.0652,0.0764,0.0703,0.1056,0.0864,NA,NA,0.0879
1255,0.0971,0.1074,0.1083,0.1228,0.0965,0.1276,0.1303,0.057,0.0912,0.0706,0.0828,0.076,0.1149,0.0941,NA,NA,0.0999
1246,0.1008,0.1116,0.1124,0.1267,0.0994,0.1324,0.1404,0.0597,0.0942,0.0726,0.0853,0.0781,0.1176,0.0973,NA,NA,0.1062
1237,0.1056,0.1171,0.1179,0.1322,0.1036,0.1384,0.1502,0.0632,0.0983,0.0754,0.0889,0.0811,0.1223,0.1018,NA,NA,0.1112
1228,0.1094,0.121,0.1216,0.1356,0.1067,0.1426,0.1575,0.0657,0.1016,0.0778,0.0914,0.0833,0.1257,0.1049,NA,NA,0.1188
1219,0.1083,0.1181,0.1198,0.1311,0.1053,0.1376,0.1529,0.062,0.1011,0.0754,0.0885,0.0804,0.12,0.1015,NA,NA,0.1203
1210,0.1025,0.1065,0.1125,0.1173,0.0992,0.1194,0.1249,0.0509,0.0975,0.068,0.0795,0.0725,0.1052,0.0908,NA,NA,0.1129
1201,0.0935,0.0912,0.1024,0.1021,0.091,0.0967,0.084,0.0368,0.0922,0.0586,0.0684,0.0631,0.0888,0.0775,NA,NA,0.1001
1192,0.0919,0.0889,0.1003,0.1004,0.0908,0.0889,0.0591,0.0328,0.0914,0.0551,0.0656,0.0609,0.0843,0.0734,NA,NA,0.0975
1183,0.0883,0.0828,0.0987,0.0984,0.0915,0.0803,0.0514,0.0258,0.0902,0.0507,0.0615,0.0567,0.077,0.0678,NA,NA,0.0881
1174,0.0927,0.0873,0.1062,0.1058,0.0992,0.0839,0.0546,0.0277,0.0933,0.0521,0.0642,0.0587,0.0802,0.0703,NA,NA,0.084
1165,0.1087,0.1053,0.1278,0.1251,0.1164,0.1007,0.0719,0.0401,0.1058,0.0605,0.0752,0.069,0.0959,0.0828,NA,NA,0.0978
1156,0.119,0.1154,0.1471,0.1384,0.1283,0.1093,0.0879,0.0462,0.1164,0.0662,0.0819,0.075,0.1047,0.0902,NA,NA,0.1104
1147,0.1115,0.1042,0.1447,0.1334,0.1263,0.097,0.0851,0.0378,0.1139,0.062,0.0766,0.07,0.0945,0.0833,NA,NA,0.1043
1138,0.1089,0.0979,0.1371,0.1292,0.1247,0.0884,0.0767,0.0342,0.1139,0.0594,0.0737,0.0682,0.0897,0.0791,NA,NA,0.0976
1129,0.1306,0.1196,0.1555,0.1477,0.1413,0.1052,0.0853,0.0509,0.1331,0.0706,0.0873,0.0812,0.1104,0.0947,NA,NA,0.1113
1120,0.1335,0.1202,0.1628,0.1491,0.1463,0.1022,0.0789,0.0512,0.1389,0.0714,0.0891,0.0825,0.11,0.0951,NA,NA,0.1084
1111,0.1315,0.1158,0.1647,0.1448,0.1462,0.0967,0.0655,0.0482,0.1401,0.0692,0.0881,0.0811,0.1057,0.092,NA,NA,0.0972
1102,0.1345,0.12,0.1668,0.147,0.1478,0.1037,0.0674,0.0525,0.1435,0.0722,0.0921,0.0845,0.1108,0.0963,NA,NA,0.0961
1093,0.145,0.1351,0.1714,0.1604,0.1546,0.1248,0.0834,0.0657,0.149,0.0809,0.102,0.0932,0.1275,0.1087,NA,NA,0.1176
1084,0.1551,0.1489,0.1823,0.1739,0.162,0.1451,0.1082,0.0762,0.1524,0.0897,0.1112,0.102,0.1454,0.1201,NA,NA,0.1456
1075,0.1787,0.1786,0.208,0.2043,0.1808,0.1791,0.1416,0.0981,0.1678,0.1044,0.1305,0.1197,0.1781,0.1423,NA,NA,0.1813
1066,0.1965,0.2003,0.222,0.225,0.1935,0.2024,0.1487,0.1133,0.178,0.1144,0.143,0.1301,0.198,0.1575,NA,NA,0.207
1057,0.1825,0.1812,0.2145,0.2035,0.1811,0.1846,0.1399,0.0952,0.1682,0.1039,0.1322,0.1176,0.1757,0.1439,NA,NA,0.2029
1048,0.19,0.1876,0.2262,0.2095,0.1866,0.1897,0.1519,0.0976,0.1763,0.1055,0.1363,0.1212,0.1827,0.1483,NA,NA,0.2089
1039,0.2024,0.2028,0.242,0.2268,0.1983,0.2058,0.1719,0.1074,0.1859,0.1106,0.1447,0.1282,0.1944,0.1587,NA,NA,0.2249
1030,0.1993,0.1998,0.2456,0.2268,0.1978,0.2083,0.1925,0.1027,0.1835,0.1066,0.1426,0.1247,0.1889,0.1569,NA,NA,0.2157
1021,0.1778,0.1725,0.2334,0.2027,0.1797,0.19,0.2058,0.0803,0.1701,0.0927,0.127,0.1075,0.1583,0.1378,NA,NA,0.1818
1012,0.148,0.1354,0.2038,0.1675,0.1541,0.1604,0.1898,0.0537,0.1501,0.0777,0.1071,0.0882,0.1262,0.1139,NA,NA,0.146
1003,0.1451,0.1358,0.1924,0.1607,0.1472,0.158,0.1604,0.0526,0.1439,0.0756,0.1033,0.0853,0.1214,0.1107,NA,NA,0.1379
994,0.121,0.108,0.1627,0.1319,0.1249,0.1327,0.1216,0.033,0.124,0.064,0.0864,0.0705,0.0972,0.0912,NA,NA,0.1117
985,0.1068,0.0948,0.1357,0.1151,0.1096,0.1193,0.0821,0.0257,0.1103,0.0605,0.0781,0.0643,0.0878,0.0828,NA,NA,0.1046
976,0.0989,0.0896,0.116,0.1052,0.0992,0.1109,0.0573,0.0219,0.1005,0.0592,0.0731,0.0614,0.0849,0.0792,NA,NA,0.1038
967,0.0975,0.0918,0.1089,0.1042,0.0965,0.1079,0.0368,0.022,0.0954,0.0597,0.0715,0.0613,0.0852,0.0794,NA,NA,0.1032
958,0.0793,0.0721,0.0909,0.0856,0.0835,0.0829,0.0122,0.0042,0.0805,0.0489,0.0573,0.0491,0.0657,0.0632,NA,NA,0.0793
949,0.0836,0.0778,0.0974,0.0921,0.0894,0.0834,0.0081,0.0061,0.0832,0.0509,0.0598,0.0526,0.0702,0.0663,NA,NA,0.0797
940,0.105,0.101,0.1231,0.1151,0.1085,0.1019,0.0233,0.0216,0.1008,0.0624,0.075,0.0671,0.0925,0.0834,NA,NA,0.1113
931,0.1426,0.1429,0.1601,0.1568,0.1393,0.14,0.0444,0.0523,0.1301,0.0838,0.1018,0.0928,0.1344,0.1139,NA,NA,0.1604
922,0.1547,0.1566,0.1695,0.1693,0.1488,0.1474,0.0363,0.0598,0.1387,0.0877,0.1072,0.0979,0.1415,0.1213,NA,NA,0.169
913,0.1495,0.1501,0.1643,0.1617,0.1452,0.1354,0.0302,0.0511,0.1346,0.0805,0.0999,0.0902,0.1257,0.113,NA,NA,0.1453
904,0.1351,0.1325,0.1532,0.1444,0.1356,0.1182,0.0292,0.0355,0.1246,0.0719,0.0892,0.0796,0.107,0.0999,NA,NA,0.1165
895,0.1292,0.1256,0.1446,0.1356,0.1288,0.1135,0.0242,0.0294,0.1196,0.0704,0.0851,0.0762,0.1024,0.0953,NA,NA,0.1145
886,0.1247,0.1194,0.134,0.127,0.1208,0.1092,0.0209,0.0241,0.1148,0.0691,0.0801,0.0729,0.0975,0.092,NA,NA,0.1122
877,0.1076,0.1017,0.1152,0.1096,0.1063,0.097,0.0094,0.0109,0.1017,0.0635,0.0699,0.0643,0.0875,0.0834,NA,NA,0.0908
868,0.1004,0.0981,0.111,0.1076,0.1028,0.0994,0.0068,0.0093,0.0964,0.0641,0.0697,0.0635,0.0852,0.0818,NA,NA,0.0896
859,0.1036,0.1042,0.1158,0.1142,0.1065,0.1085,0.0095,0.0146,0.0992,0.0697,0.0754,0.0692,0.0937,0.0874,NA,NA,0.0992
850,0.1274,0.1333,0.1382,0.142,0.1252,0.1377,0.0261,0.0367,0.1176,0.0848,0.0946,0.0871,0.1217,0.1093,NA,NA,0.1378
841,0.1292,0.1341,0.1383,0.1417,0.1261,0.1393,0.038,0.0364,0.1196,0.0854,0.0949,0.0866,0.1165,0.1103,NA,NA,0.1519
832,0.1053,0.1037,0.1205,0.1196,0.1135,0.1176,0.045,0.0129,0.1076,0.0741,0.0794,0.0713,0.0924,0.0912,NA,NA,0.1129
823,0.0967,0.0944,0.1144,0.1117,0.1097,0.1098,0.0352,0.0048,0.1027,0.072,0.0741,0.0666,0.0861,0.0855,NA,NA,0.087
814,0.0974,0.096,0.1157,0.1125,0.1117,0.111,0.024,0.0039,0.104,0.0741,0.075,0.0677,0.0879,0.087,NA,NA,0.0785
805,0.1058,0.1063,0.1222,0.1208,0.1185,0.1204,0.0158,0.0091,0.1093,0.0802,0.0809,0.0739,0.097,0.095,NA,NA,0.0783
796,0.1086,0.1095,0.125,0.1236,0.122,0.1235,0.0082,0.0091,0.112,0.083,0.0828,0.0756,0.099,0.0974,NA,NA,0.0767
787,0.1058,0.1055,0.1251,0.1221,0.1226,0.1221,0.0074,0.0042,0.1124,0.0835,0.0818,0.0743,0.0966,0.0963,NA,NA,0.0739
778,0.1102,0.1111,0.1321,0.1292,0.1289,0.1296,0.0122,0.0067,0.1178,0.0884,0.0866,0.0788,0.1027,0.1016,NA,NA,0.0812
769,0.1138,0.1153,0.1383,0.1335,0.134,0.1342,0.0146,0.0071,0.1224,0.0917,0.0898,0.0815,0.1065,0.1051,NA,NA,0.0879
760,0.1142,0.1156,0.1419,0.1346,0.137,0.1345,0.0095,0.0037,0.1246,0.093,0.0903,0.0819,0.1065,0.1053,NA,NA,0.0801
751,0.124,0.1269,0.1516,0.1454,0.1468,0.1444,0.0104,0.009,0.1333,0.0995,0.0979,0.0891,0.1169,0.1142,NA,NA,0.0908
742,0.1413,0.1461,0.1667,0.1636,0.1605,0.1624,0.014,0.0204,0.1465,0.1101,0.1105,0.1013,0.1349,0.1289,NA,NA,0.1119
733,0.1513,0.1562,0.1753,0.1732,0.1697,0.1732,0.0197,0.0248,0.1555,0.1167,0.1168,0.1075,0.1435,0.1369,NA,NA,0.1257
724,0.1574,0.1621,0.1816,0.18,0.1764,0.1807,0.026,0.0259,0.1619,0.1206,0.1212,0.1113,0.1495,0.1426,NA,NA,0.1193
715,0.1555,0.1604,0.1831,0.1794,0.1774,0.1816,0.0226,0.0217,0.1618,0.1227,0.122,0.1119,0.1496,0.1438,NA,NA,0.1236
706,0.1676,0.1766,0.1959,0.1941,0.1879,0.1976,0.0245,0.031,0.1716,0.1316,0.1324,0.1216,0.1644,0.1559,NA,NA,0.1466
697,0.1706,0.1791,0.1988,0.1959,0.1909,0.2016,0.0248,0.0303,0.1747,0.1344,0.1342,0.123,0.1647,0.1585,NA,NA,0.1549
688,0.1606,0.1666,0.191,0.186,0.1857,0.1922,0.0177,0.0173,0.1696,0.1304,0.1275,0.1164,0.1537,0.1513,NA,NA,0.1358
679,0.1574,0.1635,0.1908,0.1839,0.1861,0.1909,0.013,0.0104,0.1684,0.1302,0.126,0.1145,0.1511,0.1496,NA,NA,0.1263
670,0.1602,0.1666,0.195,0.1881,0.19,0.1963,0.0109,0.0099,0.1718,0.1331,0.1288,0.1172,0.155,0.1531,NA,NA,0.1264
661,0.1635,0.1704,0.1991,0.1911,0.1947,0.2018,0.0101,0.01,0.1757,0.1372,0.1321,0.1202,0.1589,0.1567,NA,NA,0.1277
652,0.1644,0.1715,0.2013,0.193,0.1975,0.205,0.007,0.007,0.1781,0.1392,0.1341,0.1219,0.1606,0.1585,NA,NA,0.1301
643,0.1674,0.1743,0.2051,0.1968,0.2021,0.2087,0.0067,0.0057,0.1813,0.1425,0.1357,0.1235,0.1634,0.1612,NA,NA,0.1325
634,0.1726,0.1801,0.2129,0.2044,0.2097,0.2162,0.0102,0.0064,0.1888,0.1467,0.1419,0.1294,0.1706,0.1667,NA,NA,0.1357
625,0.1858,0.1929,0.2293,0.2207,0.2233,0.2315,0.0317,0.0151,0.2059,0.1556,0.1546,0.1404,0.1856,0.1792,NA,NA,0.1484
616,0.1987,0.2044,0.2452,0.2356,0.2368,0.245,0.049,0.0223,0.2243,0.1642,0.1665,0.1509,0.1999,0.1907,NA,NA,0.1691
607,0.2106,0.2177,0.2575,0.2461,0.2482,0.2582,0.045,0.0276,0.229,0.1703,0.1718,0.1563,0.2099,0.1994,NA,NA,0.1812
598,0.2154,0.2216,0.2619,0.2495,0.2539,0.262,0.0372,0.0254,0.2342,0.173,0.1733,0.1574,0.2109,0.2024,NA,NA,0.1796
589,0.2233,0.2285,0.2752,0.2627,0.2677,0.27,0.0516,0.0271,0.2438,0.1787,0.1794,0.1628,0.2194,0.2089,NA,NA,0.1775
580,0.2379,0.2437,0.2954,0.282,0.285,0.2847,0.0756,0.0345,0.2584,0.187,0.1904,0.1727,0.2333,0.2209,NA,NA,0.1881
571,0.2498,0.2534,0.3095,0.2923,0.2975,0.2895,0.074,0.0363,0.2704,0.1926,0.1967,0.1773,0.2396,0.2275,NA,NA,0.1921
562,0.2602,0.2593,0.3223,0.2978,0.3096,0.2917,0.0688,0.0355,0.2824,0.1955,0.1995,0.1796,0.2412,0.231,NA,NA,0.1891
553,0.2613,0.2612,0.3255,0.3017,0.3139,0.2935,0.0615,0.0339,0.2847,0.1986,0.2004,0.1807,0.2417,0.2332,NA,NA,0.1886
544,0.2648,0.267,0.3259,0.3071,0.3177,0.3002,0.0571,0.0351,0.2846,0.2027,0.2024,0.184,0.2461,0.2369,NA,NA,0.1949
535,0.2619,0.2657,0.3228,0.306,0.3157,0.3018,0.0489,0.0314,0.281,0.2042,0.2014,0.1836,0.2444,0.2372,NA,NA,0.1961
526,0.2581,0.2629,0.3192,0.3035,0.3138,0.3021,0.0387,0.0232,0.2762,0.2055,0.1987,0.1809,0.2404,0.2356,NA,NA,0.1935
517,0.2599,0.2669,0.3211,0.3076,0.3167,0.3077,0.0338,0.0242,0.277,0.2074,0.2007,0.1823,0.2442,0.239,NA,NA,0.2001
508,0.2571,0.2653,0.317,0.3044,0.315,0.3076,0.0274,0.0201,0.2754,0.2101,0.1978,0.1813,0.2417,0.2374,NA,NA,0.1979
499,0.2596,0.2656,0.3204,0.3037,0.3159,0.3086,0.0245,0.0164,0.2794,0.2118,0.2006,0.183,0.2435,0.2389,NA,NA,0.1965
490,0.2651,0.2706,0.3276,0.3071,0.3219,0.3112,0.0242,0.0138,0.2851,0.2143,0.2018,0.1844,0.2468,0.2411,NA,NA,0.2013
481,0.2663,0.2724,0.3303,0.3081,0.3228,0.3145,0.0247,0.0125,0.2853,0.2172,0.2037,0.1854,0.2497,0.2438,NA,NA,0.2062
472,0.269,0.2742,0.3295,0.3094,0.3249,0.3203,0.0181,0.011,0.2855,0.2186,0.2032,0.1864,0.2501,0.2446,NA,NA,0.2075
463,0.2698,0.2787,0.3292,0.3111,0.3247,0.3251,0.008,0.0056,0.2895,0.2224,0.2058,0.1871,0.252,0.246,NA,NA,0.2068
454,0.2667,0.2743,0.3311,0.3133,0.3271,0.3382,0.0058,0.0026,0.2883,0.2239,0.2097,0.1886,0.2562,0.2512,NA,NA,0.2095
450,0.2713,0.2768,0.3334,0.3156,0.3303,0.3412,0.0044,0.0051,0.2915,0.2243,0.208,0.1894,0.256,0.2539,NA,NA,0.2127