File: ft_ir/output_ftir/export_data/final_combined_ftir_data.csv
"Variable","Lab_02","Lab_03","Lab_08","Lab_09","Lab_10","Lab_11","Lab_12","Lab_13","Lab_16","Lab_17","Lab_19","Lab_20","Lab_21","Lab_22","Lab_45","Lab_65","standard","Lab_01","Lab_04","Lab_05","Lab_06","Lab_07","Lab_14","Lab_15","Lab_18"
"Sample Code","R02","R04","R03","R02","R01","R02","R03","R01","R01","R02","R04","R01","R02","R03","R01","R03","standard",NA,NA,NA,NA,NA,NA,NA,NA
"Location","Mendieta","Mendieta","Concession","Concession","Mendieta","Mendieta","Mendieta","7H","7H","7H","7H","Powder Ilo","Powder Ilo","Powder Ilo","Concession","Mendieta","standard",NA,NA,NA,NA,NA,NA,NA,NA
"region","Paracas","Paracas","Paracas","Paracas","Paracas","Paracas","Paracas","Marcona","Marcona","Marcona","Marcona","Ilo","Ilo","Ilo","Paracas","Paracas","standard",NA,NA,NA,NA,NA,NA,NA,NA
"variety","C.Cham","C.Cham","C.Cham","C.Cham","F. Glom","F. Glom","F. Glom","C.Cham","F. Glom","F. Glom","F. Glom","C.Cham","C.Cham","C.Cham","C.Cham","C.Cham","standard",NA,NA,NA,NA,NA,NA,NA,NA
"Life_S","Tetra","Carp","Gam","Gam/Tetra","Gam/Tetra","Gam/Tetra","Gam/Tetra","Tetra","Carp","Gam/Tetra","Gam/Tetra","Unknown","Unknown","Unknown","Gam/Tetra","Gam","standard",NA,NA,NA,NA,NA,NA,NA,NA
"Large Ind?","Yes","Yes","Yes","No","No","No","No","Yes","No","No","No","No","No","No","No","No","standard",NA,NA,NA,NA,NA,NA,NA,NA
"4000","0.0059","0.0068","0.0079","0.0076","0.008","0.0075","0.0072","0.0042","0.0076","0.0044","0.0095","0.0115","0.01","0.0054",NA,NA,"0.0132","0.0064","0.0089","0.0094","0.0088","0.0074","0.007","0.0067","0.0082"
"3984","0.0061","0.0069","0.0079","0.0077","0.0081","0.0077","0.0073","0.0043","0.0077","0.0044","0.0095","0.0115","0.0099","0.0054",NA,NA,"0.013","0.0066","0.0091","0.0096","0.0088","0.0074","0.0071","0.0068","0.0082"
"3968","0.0061","0.0069","0.008","0.0077","0.0081","0.0076","0.0074","0.0044","0.0077","0.0045","0.0095","0.0115","0.01","0.0054",NA,NA,"0.013","0.0066","0.009","0.0097","0.0088","0.0074","0.0071","0.0068","0.0082"
"3952","0.0062","0.0071","0.008","0.0078","0.0082","0.0078","0.0075","0.0046","0.0078","0.0045","0.0096","0.0116","0.01","0.0056",NA,NA,"0.0129","0.0067","0.0093","0.0097","0.0089","0.0075","0.0073","0.007","0.0083"
"3936","0.0061","0.0071","0.0082","0.0078","0.0082","0.0078","0.0075","0.0046","0.0078","0.0045","0.0097","0.0115","0.0101","0.0056",NA,NA,"0.0129","0.0067","0.0093","0.0098","0.0089","0.0075","0.0072","0.0069","0.0083"
"3920","0.0065","0.0076","0.0082","0.0079","0.0081","0.0077","0.0074","0.0046","0.0077","0.0044","0.0097","0.0116","0.0101","0.0056",NA,NA,"0.0127","0.007","0.0097","0.0097","0.0089","0.0075","0.0072","0.0069","0.0083"
"3904","0.0067","0.0078","0.0086","0.008","0.0084","0.0079","0.0075","0.0051","0.0078","0.0044","0.0098","0.0117","0.0102","0.0061",NA,NA,"0.0129","0.0072","0.0101","0.0099","0.0091","0.0077","0.0073","0.0069","0.0085"
"3888","0.0066","0.0076","0.0084","0.0079","0.0081","0.0077","0.0074","0.0048","0.0076","0.0044","0.0096","0.0115","0.01","0.006",NA,NA,"0.0128","0.007","0.0098","0.0097","0.0088","0.0076","0.0071","0.0067","0.0083"
"3872","0.0067","0.0078","0.0086","0.0081","0.0084","0.008","0.0076","0.0052","0.0077","0.0044","0.0098","0.0115","0.0102","0.0063",NA,NA,"0.0129","0.0071","0.0102","0.0098","0.0088","0.0078","0.0072","0.0069","0.0083"
"3856","0.0062","0.0074","0.0087","0.0081","0.0083","0.008","0.0075","0.0056","0.0073","0.004","0.0093","0.0112","0.0099","0.0066",NA,NA,"0.0127","0.0068","0.0097","0.0099","0.0087","0.0079","0.007","0.0065","0.0082"
"3840","0.0069","0.008","0.0086","0.008","0.0084","0.0079","0.0076","0.0053","0.0077","0.0042","0.0096","0.0115","0.0101","0.0065",NA,NA,"0.0127","0.0072","0.0103","0.0098","0.0088","0.0076","0.0072","0.0068","0.0083"
"3824","0.0067","0.008","0.0086","0.0081","0.0085","0.0081","0.0078","0.0053","0.0077","0.0045","0.0096","0.0114","0.0101","0.0065",NA,NA,"0.0127","0.0073","0.0102","0.01","0.0088","0.008","0.0072","0.0067","0.0084"
"3808","0.0067","0.0077","0.0084","0.0081","0.0085","0.0082","0.0077","0.0052","0.0079","0.0046","0.0097","0.0115","0.0102","0.0063",NA,NA,"0.0123","0.0072","0.01","0.01","0.0089","0.0079","0.0075","0.007","0.0084"
"3792","0.0067","0.0076","0.0085","0.0083","0.0088","0.0082","0.0078","0.0049","0.0081","0.0049","0.0096","0.0114","0.0099","0.0062",NA,NA,"0.012","0.0072","0.0097","0.0102","0.0089","0.0081","0.0075","0.007","0.0084"
"3776","0.0069","0.0079","0.0088","0.0084","0.0089","0.0085","0.008","0.0052","0.0083","0.005","0.0099","0.0117","0.0103","0.0064",NA,NA,"0.0119","0.0075","0.0099","0.0103","0.0092","0.0083","0.0078","0.0074","0.0088"
"3760","0.0076","0.0088","0.0093","0.009","0.0094","0.009","0.0086","0.0058","0.0086","0.0053","0.0103","0.0121","0.0107","0.0068",NA,NA,"0.0121","0.0082","0.0109","0.0107","0.0096","0.0089","0.0081","0.0078","0.0091"
"3744","0.0081","0.0094","0.0098","0.0092","0.0096","0.0092","0.0088","0.0066","0.0085","0.0053","0.0103","0.012","0.0109","0.008",NA,NA,"0.012","0.0086","0.0118","0.0108","0.0096","0.0092","0.0081","0.0076","0.0093"
"3728","0.0085","0.0097","0.0101","0.0097","0.0102","0.0097","0.0093","0.0066","0.0093","0.006","0.0108","0.0126","0.0113","0.0077",NA,NA,"0.0114","0.0092","0.0122","0.0113","0.0103","0.0097","0.0086","0.0085","0.0098"
"3712","0.009","0.0103","0.0111","0.0107","0.0111","0.0111","0.0106","0.0075","0.0101","0.0067","0.0116","0.0132","0.0123","0.0088",NA,NA,"0.0117","0.01","0.0128","0.0124","0.011","0.0107","0.0095","0.0093","0.0108"
"3696","0.0099","0.0112","0.0124","0.0122","0.0129","0.0129","0.0123","0.0085","0.0118","0.0084","0.0125","0.0142","0.0133","0.0099",NA,NA,"0.0114","0.0113","0.0136","0.0137","0.0125","0.0124","0.0108","0.0112","0.0122"
"3680","0.0127","0.0141","0.0153","0.0151","0.0161","0.0162","0.0159","0.0115","0.0147","0.011","0.0148","0.0163","0.016","0.0131",NA,NA,"0.012","0.0148","0.0171","0.0162","0.0154","0.0156","0.0134","0.0142","0.0152"
"3664","0.0172","0.0189","0.0205","0.0207","0.0224","0.022","0.0228","0.016","0.0204","0.0165","0.0188","0.0202","0.0206","0.018",NA,NA,"0.0131","0.0206","0.0227","0.0214","0.0208","0.0215","0.0183","0.02","0.0207"
"3648","0.025","0.0274","0.0294","0.0296","0.0316","0.0315","0.034","0.0239","0.0286","0.0234","0.0251","0.0262","0.0279","0.0265",NA,NA,"0.0158","0.0299","0.0327","0.029","0.0294","0.0306","0.0255","0.0286","0.0289"
"3632","0.033","0.0358","0.0387","0.0394","0.0414","0.042","0.0459","0.0324","0.0379","0.0319","0.0322","0.0328","0.0362","0.0354",NA,NA,"0.0189","0.0395","0.0421","0.0372","0.0387","0.0409","0.0347","0.0395","0.0385"
"3616","0.0435","0.0471","0.0502","0.0514","0.0537","0.0547","0.0613","0.0422","0.0492","0.0418","0.0406","0.0409","0.0464","0.0458",NA,NA,"0.0234","0.052","0.0556","0.0476","0.0502","0.0527","0.0445","0.0511","0.0502"
"3600","0.0528","0.0571","0.0612","0.0631","0.0655","0.0669","0.0759","0.0514","0.06","0.0509","0.0484","0.0483","0.0561","0.0556",NA,NA,"0.0281","0.0631","0.0669","0.0574","0.0609","0.0647","0.0542","0.0629","0.061"
"3584","0.0625","0.0676","0.0728","0.0748","0.0777","0.0792","0.0906","0.0608","0.0706","0.0603","0.0563","0.0559","0.0658","0.0657",NA,NA,"0.0337","0.0753","0.0793","0.0673","0.072","0.0771","0.064","0.0748","0.0721"
"3568","0.0713","0.0767","0.0829","0.0852","0.088","0.0899","0.1024","0.0693","0.0799","0.0681","0.0635","0.0624","0.0736","0.0747",NA,NA,"0.0375","0.0861","0.0895","0.0756","0.0816","0.0892","0.0723","0.0845","0.0815"
"3552","0.0798","0.0856","0.0934","0.0957","0.0996","0.1014","0.1162","0.0781","0.0903","0.0773","0.0708","0.0695","0.0825","0.0841",NA,NA,"0.0416","0.0979","0.1001","0.085","0.0918","0.1016","0.0814","0.0953","0.0916"
"3536","0.0879","0.0942","0.1038","0.1057","0.1107","0.1122","0.1286","0.0866","0.1002","0.086","0.0777","0.0761","0.0904","0.093",NA,NA,"0.0455","0.1093","0.1102","0.0937","0.1016","0.1141","0.09","0.1052","0.101"
"3520","0.0962","0.1032","0.1139","0.1157","0.1221","0.123","0.141","0.0948","0.1099","0.0946","0.0844","0.0826","0.0981","0.1019",NA,NA,"0.0487","0.1209","0.1204","0.1023","0.1112","0.1262","0.0982","0.1149","0.1103"
"3504","0.1041","0.1116","0.1237","0.1252","0.1329","0.1332","0.1524","0.1029","0.1193","0.1029","0.0909","0.0889","0.1052","0.1107",NA,NA,"0.0509","0.1324","0.1301","0.1104","0.1206","0.1383","0.1063","0.1243","0.1194"
"3488","0.1115","0.1195","0.1331","0.1341","0.1435","0.1434","0.1637","0.1107","0.1284","0.1111","0.097","0.0946","0.1122","0.1189",NA,NA,"0.0535","0.1436","0.1393","0.1186","0.1297","0.1498","0.1138","0.1334","0.1281"
"3472","0.1187","0.1271","0.1422","0.1427","0.1538","0.153","0.1744","0.1179","0.1371","0.1187","0.1028","0.1","0.1187","0.1268",NA,NA,"0.056","0.1545","0.1482","0.126","0.1384","0.1613","0.121","0.1422","0.1364"
"3456","0.1251","0.134","0.1504","0.1505","0.1632","0.162","0.1841","0.1245","0.145","0.1256","0.1079","0.1047","0.1243","0.1336",NA,NA,"0.0584","0.1641","0.1564","0.1329","0.1462","0.1715","0.1274","0.1499","0.1439"
"3440","0.1309","0.1403","0.1581","0.1575","0.1717","0.1701","0.1928","0.1303","0.1519","0.1319","0.1123","0.1088","0.1292","0.1399",NA,NA,"0.0607","0.1733","0.1639","0.1388","0.1534","0.1811","0.1332","0.1572","0.1506"
"3424","0.1355","0.1451","0.1643","0.163","0.1784","0.1763","0.1992","0.1346","0.1569","0.1366","0.1154","0.1115","0.1325","0.1446",NA,NA,"0.063","0.1808","0.1695","0.1435","0.1589","0.1889","0.1374","0.1626","0.1555"
"3408","0.1388","0.1486","0.1688","0.1669","0.1832","0.1809","0.204","0.1378","0.1607","0.1399","0.1176","0.1131","0.1346","0.1477",NA,NA,"0.065","0.1873","0.1737","0.1466","0.1631","0.1949","0.1405","0.1666","0.159"
"3392","0.1403","0.1501","0.1713","0.1683","0.1857","0.1831","0.2059","0.1389","0.1623","0.1413","0.1181","0.1133","0.1349","0.1486",NA,NA,"0.0659","0.1917","0.1756","0.1479","0.1651","0.1984","0.1416","0.1686","0.1605"
"3376","0.1397","0.1493","0.1714","0.1674","0.1849","0.182","0.2042","0.1376","0.1609","0.1403","0.1164","0.1114","0.1327","0.147",NA,NA,"0.0656","0.1936","0.1746","0.1466","0.1644","0.1989","0.1403","0.1673","0.159"
"3360","0.1372","0.1467","0.1691","0.164","0.1817","0.1784","0.1998","0.1347","0.1575","0.1373","0.1138","0.1084","0.1292","0.1434",NA,NA,"0.0651","0.1933","0.1713","0.1435","0.1616","0.197","0.1376","0.1642","0.1553"
"3344","0.1336","0.1422","0.1651","0.159","0.1761","0.1727","0.1932","0.1304","0.1524","0.1324","0.1097","0.1041","0.1244","0.1382",NA,NA,"0.0639","0.191","0.1661","0.1388","0.1569","0.1927","0.1333","0.1591","0.15"
"3328","0.1287","0.1369","0.1595","0.1529","0.1693","0.1656","0.1852","0.125","0.1461","0.1266","0.1051","0.0994","0.119","0.1319",NA,NA,"0.0627","0.1866","0.1596","0.1333","0.1513","0.1871","0.1283","0.1531","0.1435"
"3312","0.1241","0.1314","0.1534","0.1465","0.1618","0.158","0.1773","0.1196","0.1401","0.1207","0.1004","0.0947","0.1136","0.1258",NA,NA,"0.0613","0.1812","0.1532","0.1276","0.1453","0.1806","0.1232","0.147","0.1372"
"3296","0.1197","0.1264","0.1478","0.1407","0.1552","0.1512","0.1699","0.1147","0.1344","0.1152","0.0961","0.0906","0.1086","0.1201",NA,NA,"0.0602","0.1765","0.1472","0.1223","0.1398","0.1749","0.1186","0.1407","0.1312"
"3280","0.1153","0.1213","0.1423","0.1351","0.1487","0.1445","0.163","0.11","0.1289","0.1099","0.0919","0.0864","0.1039","0.1146",NA,NA,"0.0589","0.1715","0.1412","0.1174","0.1345","0.1691","0.114","0.1348","0.1254"
"3264","0.1111","0.1163","0.1362","0.1294","0.1424","0.1378","0.156","0.1054","0.1235","0.1048","0.0879","0.0825","0.0992","0.1093",NA,NA,"0.0575","0.1659","0.1354","0.1125","0.1291","0.1633","0.1096","0.1286","0.1197"
"3248","0.1059","0.1105","0.1297","0.1231","0.1351","0.1304","0.1481","0.1","0.1175","0.0991","0.0833","0.0783","0.0938","0.1033",NA,NA,"0.0559","0.1595","0.1285","0.1073","0.1232","0.1569","0.1047","0.1219","0.1133"
"3232","0.1001","0.1039","0.1219","0.1155","0.1269","0.1218","0.1386","0.0938","0.1106","0.0925","0.078","0.0734","0.0877","0.0964",NA,NA,"0.0538","0.1523","0.1207","0.1008","0.116","0.149","0.0987","0.1139","0.1059"
"3216","0.0932","0.096","0.1131","0.1069","0.1173","0.1118","0.1277","0.0866","0.1024","0.0849","0.072","0.0676","0.0806","0.0886",NA,NA,"0.0514","0.144","0.1113","0.0934","0.1079","0.1397","0.0917","0.1047","0.0973"
"3200","0.0856","0.0874","0.1035","0.0974","0.1069","0.1009","0.1159","0.0786","0.0936","0.0765","0.0656","0.0617","0.0731","0.08",NA,NA,"0.0486","0.135","0.1013","0.0856","0.0991","0.1293","0.0842","0.0948","0.0881"
"3184","0.0777","0.0787","0.0938","0.0879","0.0963","0.0898","0.1037","0.0709","0.0847","0.068","0.0593","0.0557","0.0659","0.0713",NA,NA,"0.0457","0.1253","0.0913","0.0774","0.0898","0.1183","0.0764","0.0847","0.0788"
"3168","0.0703","0.0705","0.0842","0.0787","0.0862","0.0793","0.092","0.0633","0.0762","0.0598","0.0531","0.05","0.0587","0.0631",NA,NA,"0.0429","0.1158","0.0814","0.0698","0.081","0.1075","0.069","0.0749","0.0698"
"3152","0.0631","0.0628","0.0755","0.0703","0.0769","0.0698","0.0815","0.0561","0.0683","0.0524","0.0476","0.045","0.0523","0.0558",NA,NA,"0.0403","0.1067","0.0724","0.0627","0.0729","0.0974","0.0622","0.066","0.0618"
"3136","0.0566","0.0557","0.0674","0.0626","0.0685","0.0611","0.0718","0.0498","0.0611","0.0457","0.0427","0.0403","0.0464","0.049",NA,NA,"0.0378","0.098","0.0641","0.0562","0.0654","0.088","0.0558","0.0579","0.0543"
"3120","0.0509","0.0497","0.0603","0.056","0.0611","0.0536","0.0634","0.0443","0.0549","0.0399","0.0384","0.0364","0.0416","0.0433",NA,NA,"0.0354","0.09","0.0572","0.0506","0.059","0.0796","0.0504","0.0511","0.0482"
"3104","0.0458","0.0443","0.0539","0.0502","0.0547","0.0472","0.056","0.0393","0.0492","0.0349","0.0344","0.0328","0.0372","0.0382",NA,NA,"0.0332","0.0827","0.0509","0.0457","0.0531","0.0719","0.0453","0.045","0.0424"
"3088","0.0414","0.0396","0.0483","0.0451","0.049","0.0416","0.0498","0.035","0.0443","0.0308","0.0313","0.0299","0.0335","0.034",NA,NA,"0.0314","0.0761","0.0456","0.0413","0.0481","0.0652","0.0412","0.0398","0.0379"
"3072","0.0374","0.0355","0.0435","0.0407","0.0442","0.0369","0.0443","0.0314","0.0401","0.027","0.0284","0.0273","0.0301","0.0302",NA,NA,"0.0297","0.0699","0.0408","0.0377","0.0436","0.0591","0.0374","0.0353","0.0337"
"3056","0.034","0.0321","0.0393","0.0368","0.0398","0.0328","0.0396","0.0282","0.0364","0.0239","0.026","0.025","0.0274","0.027",NA,NA,"0.0282","0.0643","0.0369","0.0343","0.0398","0.0537","0.0342","0.0314","0.0302"
"3040","0.031","0.0291","0.0357","0.0335","0.0362","0.0295","0.0355","0.0254","0.0332","0.0212","0.0239","0.0233","0.0252","0.0243",NA,NA,"0.0271","0.059","0.0335","0.0316","0.0365","0.049","0.0315","0.0281","0.0275"
"3024","0.0286","0.0268","0.0327","0.0309","0.0332","0.0269","0.0324","0.023","0.0305","0.019","0.0222","0.0217","0.0233","0.022",NA,NA,"0.0262","0.0544","0.031","0.0294","0.0337","0.045","0.0291","0.0255","0.025"
"3008","0.0269","0.0252","0.0306","0.0291","0.031","0.0251","0.0303","0.0215","0.0284","0.0173","0.021","0.0205","0.0219","0.0205",NA,NA,"0.0259","0.0507","0.0292","0.0279","0.0316","0.0418","0.0271","0.0238","0.0233"
"2992","0.026","0.0245","0.0294","0.028","0.0292","0.0242","0.0292","0.0206","0.0271","0.0162","0.0203","0.0199","0.0214","0.0197",NA,NA,"0.0263","0.0477","0.0284","0.0268","0.0303","0.0398","0.0259","0.023","0.0226"
"2976","0.0262","0.025","0.0299","0.0286","0.029","0.0248","0.0295","0.0206","0.027","0.016","0.0206","0.0201","0.0219","0.0198",NA,NA,"0.0275","0.047","0.0291","0.0268","0.0304","0.0392","0.0257","0.0237","0.0228"
"2960","0.0266","0.0255","0.0312","0.0296","0.0294","0.0257","0.0298","0.0203","0.0276","0.0156","0.021","0.0201","0.0223","0.02",NA,NA,"0.0285","0.049","0.0298","0.027","0.0311","0.0399","0.0251","0.0242","0.0229"
"2944","0.026","0.0252","0.0319","0.0296","0.0291","0.0257","0.0292","0.0197","0.0269","0.0149","0.0208","0.0197","0.022","0.0195",NA,NA,"0.0285","0.0491","0.0294","0.0267","0.0308","0.0395","0.0242","0.0235","0.0224"
"2928","0.0269","0.0263","0.0351","0.0328","0.0314","0.0282","0.0291","0.0195","0.0286","0.0146","0.0218","0.0199","0.0225","0.02",NA,NA,"0.0281","0.0559","0.0315","0.0283","0.034","0.0429","0.0239","0.0238","0.0228"
"2912","0.0256","0.0254","0.0333","0.0307","0.0298","0.0269","0.0276","0.0186","0.0268","0.0141","0.0208","0.0192","0.0217","0.0191",NA,NA,"0.029","0.0511","0.0301","0.027","0.0322","0.0417","0.0231","0.0229","0.022"
"2896","0.0229","0.0224","0.029","0.0261","0.0257","0.023","0.0252","0.0168","0.0233","0.0126","0.0188","0.0178","0.0195","0.017",NA,NA,"0.029","0.0433","0.0263","0.024","0.0273","0.035","0.021","0.0201","0.0198"
"2880","0.0207","0.0202","0.0261","0.0234","0.0232","0.0204","0.0225","0.0154","0.021","0.0113","0.0172","0.0165","0.0178","0.0153",NA,NA,"0.0273","0.0383","0.0236","0.0221","0.0244","0.0312","0.0191","0.0181","0.0179"
"2864","0.0191","0.0186","0.0242","0.022","0.0218","0.019","0.0202","0.0139","0.0197","0.0102","0.0162","0.0155","0.0163","0.014",NA,NA,"0.0259","0.0368","0.0219","0.0209","0.0231","0.0288","0.0173","0.0162","0.0163"
"2848","0.0183","0.0179","0.0241","0.0221","0.0222","0.0192","0.0189","0.0129","0.0199","0.0097","0.0158","0.0149","0.0156","0.0133",NA,NA,"0.0245","0.0379","0.0211","0.0207","0.0237","0.0312","0.0162","0.0152","0.0154"
"2832","0.0153","0.0149","0.019","0.0171","0.0176","0.0147","0.0163","0.0111","0.0159","0.0084","0.0135","0.0135","0.0134","0.0113",NA,NA,"0.0234","0.0279","0.0172","0.0176","0.0184","0.0229","0.0144","0.0127","0.0133"
"2816","0.0143","0.0138","0.0173","0.0157","0.0162","0.0135","0.0151","0.0103","0.0147","0.0078","0.0127","0.0128","0.0125","0.0103",NA,NA,"0.0226","0.025","0.016","0.0167","0.0168","0.0208","0.0134","0.0116","0.0123"
"2800","0.0135","0.0131","0.0162","0.0148","0.0153","0.0127","0.0141","0.0097","0.0138","0.0074","0.012","0.0123","0.0119","0.0099",NA,NA,"0.0221","0.023","0.0152","0.0159","0.0158","0.0194","0.0127","0.0109","0.0116"
"2784","0.0129","0.0125","0.0154","0.0141","0.0146","0.0122","0.0134","0.0092","0.0131","0.0071","0.0116","0.0119","0.0113","0.0094",NA,NA,"0.0218","0.0215","0.0145","0.0154","0.0151","0.0183","0.0119","0.0103","0.0111"
"2768","0.0122","0.0119","0.0148","0.0134","0.014","0.0116","0.0128","0.0087","0.0126","0.0067","0.0113","0.0117","0.011","0.009",NA,NA,"0.0213","0.0203","0.0138","0.0149","0.0144","0.0172","0.0115","0.0098","0.0107"
"2752","0.0118","0.0116","0.0143","0.0129","0.0136","0.0113","0.0123","0.0084","0.012","0.0065","0.0109","0.0114","0.0106","0.0085",NA,NA,"0.0209","0.0193","0.0133","0.0146","0.0138","0.0165","0.011","0.0093","0.0103"
"2736","0.0113","0.0112","0.0138","0.0125","0.0132","0.011","0.0119","0.0082","0.0117","0.0063","0.0107","0.0112","0.0103","0.0083",NA,NA,"0.0207","0.0184","0.0129","0.0143","0.0134","0.0158","0.0106","0.0091","0.01"
"2720","0.011","0.0109","0.0134","0.0121","0.0128","0.0107","0.0115","0.0079","0.0112","0.0061","0.0105","0.011","0.0101","0.0082",NA,NA,"0.0205","0.0175","0.0126","0.014","0.0129","0.0152","0.0103","0.0088","0.0097"
"2704","0.0107","0.0106","0.013","0.0118","0.0124","0.0104","0.0111","0.0076","0.0109","0.0059","0.0103","0.0108","0.0098","0.0079",NA,NA,"0.0203","0.0166","0.0122","0.0137","0.0126","0.0146","0.01","0.0085","0.0095"
"2688","0.0104","0.0104","0.0126","0.0115","0.0121","0.0103","0.0108","0.0074","0.0106","0.0058","0.01","0.0107","0.0096","0.0078",NA,NA,"0.0203","0.016","0.012","0.0135","0.0122","0.014","0.0097","0.0083","0.0093"
"2672","0.0101","0.0101","0.0124","0.0113","0.0118","0.0101","0.0106","0.0072","0.0103","0.0057","0.0099","0.0105","0.0093","0.0076",NA,NA,"0.0199","0.0154","0.0117","0.0133","0.0119","0.0136","0.0094","0.008","0.009"
"2656","0.0107","0.0107","0.0127","0.0115","0.0122","0.0104","0.0108","0.0077","0.0106","0.0061","0.0104","0.011","0.0097","0.008",NA,NA,"0.0202","0.0154","0.0121","0.0136","0.0122","0.0136","0.0097","0.0084","0.0094"
"2640","0.0103","0.0103","0.0122","0.0111","0.0118","0.0101","0.0104","0.0074","0.0101","0.0059","0.0101","0.0106","0.0093","0.0078",NA,NA,"0.0199","0.0147","0.0116","0.0133","0.0117","0.013","0.0094","0.008","0.009"
"2624","0.0097","0.0098","0.0116","0.0105","0.0114","0.0097","0.0098","0.0069","0.0096","0.0055","0.0097","0.0103","0.0088","0.0072",NA,NA,"0.0192","0.0138","0.011","0.0129","0.0112","0.0124","0.0089","0.0075","0.0086"
"2608","0.0093","0.0094","0.011","0.01","0.0108","0.0093","0.0092","0.0066","0.0093","0.0052","0.0093","0.0101","0.0085","0.0069",NA,NA,"0.0188","0.0132","0.0106","0.0124","0.0106","0.0116","0.0085","0.0072","0.0082"
"2592","0.0087","0.0089","0.0106","0.0097","0.0104","0.009","0.009","0.0062","0.0088","0.0049","0.0088","0.0096","0.008","0.0065",NA,NA,"0.0185","0.0125","0.0101","0.0121","0.01","0.0111","0.008","0.0067","0.0077"
"2576","0.0083","0.0087","0.0103","0.0093","0.0102","0.0087","0.0087","0.0059","0.0085","0.0047","0.0085","0.0093","0.0077","0.0064",NA,NA,"0.0182","0.012","0.0099","0.0119","0.0098","0.0109","0.0078","0.0065","0.0074"
"2560","0.0082","0.0083","0.0099","0.0089","0.0098","0.0084","0.0083","0.0057","0.0082","0.0045","0.0083","0.0091","0.0074","0.0061",NA,NA,"0.0178","0.0116","0.0096","0.0115","0.0096","0.0104","0.0075","0.0062","0.0074"
"2544","0.0078","0.0082","0.0096","0.0088","0.0097","0.0083","0.0084","0.0055","0.0082","0.0046","0.0081","0.0089","0.0073","0.006",NA,NA,"0.0176","0.0114","0.0093","0.0116","0.0095","0.0102","0.0073","0.0062","0.0072"
"2528","0.0077","0.008","0.0095","0.0088","0.0097","0.0083","0.0082","0.0053","0.0076","0.0045","0.0078","0.0087","0.007","0.006",NA,NA,"0.0175","0.0111","0.0093","0.0115","0.0092","0.0103","0.0071","0.0058","0.0068"
"2512","0.0076","0.008","0.0094","0.0087","0.0096","0.0082","0.0082","0.0053","0.0078","0.0044","0.0077","0.0087","0.007","0.0057",NA,NA,"0.0172","0.011","0.0094","0.0114","0.0092","0.0101","0.007","0.0059","0.0069"
"2496","0.0075","0.0079","0.0094","0.0086","0.0096","0.0082","0.0081","0.0054","0.0078","0.0043","0.008","0.0087","0.007","0.0057",NA,NA,"0.0171","0.0108","0.0092","0.0115","0.0092","0.0102","0.0071","0.0058","0.007"
"2480","0.0074","0.0076","0.0093","0.0085","0.0096","0.0079","0.0079","0.0052","0.0075","0.0044","0.0076","0.0083","0.0067","0.0057",NA,NA,"0.0171","0.0105","0.009","0.0113","0.0089","0.0101","0.0069","0.0056","0.0066"
"2464","0.0074","0.0078","0.0093","0.0085","0.0095","0.0082","0.0079","0.0053","0.0077","0.0044","0.0076","0.0085","0.0067","0.0056",NA,NA,"0.0168","0.0106","0.009","0.0114","0.009","0.0104","0.007","0.0056","0.0067"
"2448","0.0076","0.008","0.0092","0.0087","0.0095","0.0082","0.0079","0.0055","0.0079","0.0046","0.0078","0.0086","0.0069","0.006",NA,NA,"0.0169","0.0108","0.0092","0.0115","0.0091","0.0104","0.0071","0.0058","0.0069"
"2432","0.0074","0.0078","0.0091","0.0083","0.0093","0.0079","0.0078","0.0052","0.0077","0.0044","0.0075","0.0083","0.0067","0.0057",NA,NA,"0.0164","0.0106","0.0091","0.0113","0.009","0.01","0.0071","0.0056","0.0067"
"2416","0.0073","0.0076","0.009","0.0084","0.0094","0.0079","0.0078","0.0052","0.0075","0.0043","0.0075","0.0082","0.0065","0.0056",NA,NA,"0.0164","0.0105","0.0089","0.0112","0.009","0.0102","0.007","0.0056","0.0067"
"2400","0.0071","0.0076","0.0089","0.0084","0.0095","0.008","0.0079","0.0051","0.0077","0.0045","0.0072","0.0081","0.0064","0.0056",NA,NA,"0.0162","0.0104","0.0088","0.0114","0.0089","0.0101","0.0068","0.0055","0.0066"
"2384","0.007","0.0074","0.0091","0.0083","0.0092","0.0078","0.0079","0.0051","0.0078","0.0045","0.0073","0.0082","0.0065","0.0055",NA,NA,"0.0159","0.0104","0.0089","0.0111","0.009","0.0099","0.0068","0.0056","0.0067"
"2368","0.0068","0.0071","0.0096","0.0085","0.0088","0.0074","0.0078","0.0048","0.0079","0.0047","0.0077","0.0086","0.0068","0.0051",NA,NA,"0.0157","0.0103","0.0089","0.0108","0.0095","0.01","0.0071","0.0059","0.0068"
"2352","0.0076","0.0078","0.0101","0.0091","0.0105","0.0082","0.0087","0.0054","0.0086","0.0048","0.0081","0.0084","0.0073","0.0058",NA,NA,"0.016","0.0109","0.0095","0.0114","0.01","0.0107","0.0077","0.0063","0.0073"
"2336","0.0086","0.0088","0.0111","0.0103","0.0105","0.0092","0.0096","0.0062","0.0095","0.0058","0.0091","0.0097","0.0082","0.0068",NA,NA,"0.0168","0.0121","0.0104","0.0124","0.0109","0.0117","0.0086","0.0074","0.0083"
"2320","0.0104","0.0104","0.0126","0.0118","0.0124","0.0108","0.0112","0.008","0.0108","0.0074","0.0106","0.0111","0.0095","0.0083",NA,NA,"0.0181","0.0135","0.0122","0.0137","0.0124","0.0132","0.0102","0.009","0.01"
"2304","0.0098","0.0099","0.0119","0.0111","0.0117","0.0104","0.0108","0.0077","0.0103","0.007","0.0098","0.0104","0.0089","0.0078",NA,NA,"0.0172","0.0128","0.0115","0.0134","0.0117","0.0125","0.0097","0.0085","0.0094"
"2288","0.0113","0.0116","0.013","0.0124","0.0135","0.012","0.0122","0.009","0.0113","0.008","0.011","0.0115","0.0099","0.0093",NA,NA,"0.0183","0.0144","0.0131","0.0148","0.0128","0.0138","0.0108","0.0096","0.0105"
"2272","0.0104","0.0108","0.0121","0.0116","0.013","0.0114","0.0115","0.0084","0.0104","0.0075","0.0099","0.0104","0.009","0.0087",NA,NA,"0.0175","0.0135","0.0123","0.0141","0.0119","0.0128","0.0099","0.0085","0.0097"
"2256","0.01","0.0107","0.0117","0.0111","0.0123","0.0112","0.0112","0.0079","0.0102","0.0071","0.0098","0.0101","0.0085","0.0084",NA,NA,"0.0168","0.0132","0.0119","0.0136","0.0114","0.0122","0.0095","0.0084","0.0094"
"2240","0.0097","0.0106","0.0117","0.0114","0.0126","0.0114","0.0115","0.008","0.0104","0.0073","0.0095","0.0101","0.0086","0.0085",NA,NA,"0.0169","0.013","0.0118","0.0141","0.0117","0.0125","0.0094","0.0086","0.0093"
"2224","0.0098","0.0104","0.0118","0.0111","0.0125","0.0116","0.0113","0.0083","0.0102","0.0071","0.0092","0.0096","0.0084","0.0078",NA,NA,"0.0164","0.0127","0.0118","0.014","0.0114","0.0124","0.0093","0.0083","0.0096"
"2208","0.0098","0.0107","0.0111","0.0108","0.0122","0.0115","0.011","0.0082","0.0101","0.0077","0.009","0.0094","0.0081","0.0089",NA,NA,"0.0167","0.0126","0.0118","0.0139","0.0111","0.0122","0.0092","0.0082","0.0094"
"2192","0.0102","0.0108","0.0122","0.0113","0.013","0.012","0.0117","0.0088","0.0099","0.0081","0.0093","0.0099","0.0083","0.0094",NA,NA,"0.0164","0.013","0.0123","0.0138","0.0116","0.0125","0.0092","0.0086","0.01"
"2176","0.0092","0.0099","0.0112","0.0104","0.0119","0.0112","0.0105","0.0074","0.01","0.0074","0.009","0.0091","0.0079","0.0087",NA,NA,"0.0152","0.0124","0.0115","0.0135","0.0113","0.0114","0.0094","0.0084","0.0091"
"2160","0.0087","0.0093","0.0111","0.0101","0.0124","0.0108","0.011","0.0077","0.0103","0.008","0.009","0.0098","0.0079","0.0084",NA,NA,"0.0149","0.012","0.0112","0.0129","0.0112","0.0118","0.0088","0.0084","0.0094"
"2144","0.0063","0.0072","0.0093","0.0087","0.0107","0.0094","0.0098","0.0055","0.0089","0.0057","0.0064","0.0068","0.0058","0.0059",NA,NA,"0.0124","0.0098","0.0093","0.0112","0.009","0.0104","0.0063","0.0059","0.0072"
"2128","0.0081","0.0094","0.0108","0.0104","0.0124","0.0111","0.0113","0.0067","0.0098","0.0075","0.0076","0.0081","0.0075","0.008",NA,NA,"0.0141","0.0123","0.0114","0.0133","0.0107","0.0125","0.0079","0.0077","0.0085"
"2112","0.0113","0.0123","0.0138","0.0132","0.0151","0.014","0.0139","0.0098","0.0125","0.0096","0.0106","0.0108","0.0101","0.0103",NA,NA,"0.016","0.0147","0.0142","0.0158","0.0134","0.0151","0.011","0.0104","0.0117"
"2096","0.0106","0.0115","0.0132","0.0127","0.0146","0.0134","0.0133","0.0087","0.0119","0.0093","0.0101","0.0101","0.0094","0.0099",NA,NA,"0.0154","0.0139","0.0135","0.0153","0.0134","0.0145","0.0107","0.0097","0.0109"
"2080","0.0115","0.012","0.0134","0.0127","0.0148","0.0136","0.0137","0.0093","0.0124","0.0097","0.0108","0.011","0.0098","0.0105",NA,NA,"0.0158","0.0145","0.0139","0.0155","0.0133","0.0147","0.0108","0.0103","0.0115"
"2064","0.0102","0.0111","0.0122","0.0117","0.0138","0.0127","0.0126","0.009","0.0112","0.0089","0.0098","0.0103","0.0088","0.0092",NA,NA,"0.0147","0.0126","0.0128","0.0147","0.0124","0.0135","0.01","0.0091","0.0107"
"2048","0.0113","0.0117","0.0119","0.0115","0.0142","0.013","0.0122","0.0089","0.0115","0.0098","0.0104","0.0113","0.0094","0.0104",NA,NA,"0.0151","0.013","0.0131","0.0149","0.0127","0.0129","0.0103","0.0095","0.0111"
"2032","0.0085","0.0094","0.0095","0.0084","0.0111","0.0099","0.0081","0.0067","0.0091","0.008","0.008","0.0088","0.0069","0.0079",NA,NA,"0.0135","0.0093","0.011","0.0123","0.0104","0.0101","0.0075","0.007","0.0086"
"2016","0.0064","0.008","0.0094","0.0088","0.011","0.0097","0.008","0.0062","0.0082","0.0066","0.0067","0.0075","0.0057","0.0066",NA,NA,"0.013","0.0089","0.0098","0.0129","0.0092","0.0104","0.0069","0.0059","0.0077"
"2000","0.0067","0.008","0.0091","0.0087","0.0109","0.0098","0.0083","0.0057","0.0083","0.007","0.0071","0.0084","0.0064","0.0074",NA,NA,"0.0138","0.0087","0.0096","0.0127","0.0095","0.0102","0.0069","0.0064","0.0079"
"1984","0.0097","0.0101","0.0112","0.01","0.0119","0.0112","0.0097","0.0073","0.009","0.0079","0.0087","0.0096","0.0075","0.009",NA,NA,"0.0147","0.0113","0.0119","0.0138","0.0104","0.0113","0.0085","0.0074","0.0093"
"1968","0.006","0.0074","0.0091","0.0077","0.01","0.0092","0.0079","0.0042","0.0071","0.0057","0.0062","0.0068","0.0052","0.006",NA,NA,"0.0128","0.0081","0.0086","0.0118","0.0081","0.009","0.0058","0.0054","0.0061"
"1952","0.0065","0.0074","0.0087","0.0082","0.0101","0.0087","0.008","0.0047","0.0073","0.0056","0.0063","0.0075","0.0056","0.006",NA,NA,"0.0131","0.0091","0.0093","0.0111","0.0087","0.0093","0.0065","0.0057","0.0069"
"1936","0.007","0.0077","0.009","0.0084","0.0101","0.0088","0.0079","0.0042","0.0077","0.0055","0.0064","0.0074","0.0061","0.0062",NA,NA,"0.0133","0.0095","0.0095","0.0118","0.0088","0.0098","0.0067","0.0057","0.0067"
"1920","0.0075","0.0085","0.01","0.0091","0.0106","0.0097","0.0082","0.005","0.0083","0.0059","0.0074","0.0081","0.0068","0.0066",NA,NA,"0.0141","0.01","0.01","0.0124","0.0091","0.0103","0.0072","0.0066","0.0076"
"1904","0.0075","0.0088","0.0097","0.0092","0.0107","0.0095","0.0079","0.0048","0.0083","0.0058","0.0075","0.008","0.0066","0.0067",NA,NA,"0.0139","0.0099","0.01","0.0122","0.0094","0.0104","0.0075","0.0065","0.0076"
"1888","0.0076","0.0085","0.0099","0.0093","0.0108","0.0093","0.0077","0.0045","0.0082","0.006","0.0075","0.008","0.0067","0.0068",NA,NA,"0.0139","0.0101","0.01","0.0125","0.0094","0.0105","0.0074","0.0067","0.0075"
"1872","0.0079","0.0087","0.0099","0.0094","0.0108","0.0098","0.0074","0.0048","0.0084","0.006","0.0076","0.0082","0.0069","0.0068",NA,NA,"0.0135","0.0104","0.0104","0.0124","0.0096","0.0106","0.0075","0.0067","0.0077"
"1856","0.0079","0.0089","0.0101","0.0095","0.0109","0.0098","0.0074","0.0045","0.0085","0.0062","0.0077","0.0083","0.007","0.0068",NA,NA,"0.0137","0.0104","0.0103","0.0125","0.0096","0.0109","0.0076","0.0067","0.0078"
"1840","0.0084","0.0092","0.0105","0.0098","0.0111","0.01","0.0072","0.0043","0.0088","0.0063","0.0078","0.0083","0.0073","0.0071",NA,NA,"0.0136","0.011","0.0109","0.0126","0.0098","0.0112","0.008","0.007","0.0079"
"1824","0.0085","0.0095","0.011","0.0104","0.0117","0.0106","0.0073","0.0045","0.0092","0.0066","0.0084","0.0089","0.0078","0.0076",NA,NA,"0.0139","0.0113","0.0111","0.0133","0.0103","0.0119","0.0084","0.0076","0.0085"
"1808","0.0093","0.0102","0.0116","0.0109","0.0122","0.011","0.0072","0.0045","0.0099","0.0072","0.0088","0.0093","0.0082","0.0081",NA,NA,"0.014","0.0122","0.0118","0.0136","0.0111","0.0126","0.0089","0.0082","0.0089"
"1792","0.0103","0.0112","0.0125","0.0119","0.0133","0.012","0.0072","0.0044","0.0108","0.008","0.0096","0.01","0.0093","0.0091",NA,NA,"0.0143","0.0139","0.0129","0.0146","0.0119","0.0137","0.0099","0.0093","0.0099"
"1776","0.011","0.012","0.0134","0.013","0.0143","0.013","0.0075","0.0044","0.0118","0.0086","0.0101","0.0104","0.0099","0.0097",NA,NA,"0.0142","0.0151","0.0138","0.0153","0.0129","0.0149","0.0106","0.0102","0.0107"
"1760","0.0125","0.0135","0.0151","0.0148","0.016","0.0147","0.0079","0.0048","0.0133","0.0097","0.0113","0.0115","0.011","0.0109",NA,NA,"0.0144","0.0176","0.0153","0.0164","0.0148","0.017","0.012","0.0116","0.012"
"1744","0.0153","0.0161","0.0191","0.0186","0.0199","0.0184","0.0104","0.006","0.0164","0.0116","0.0135","0.0132","0.0133","0.0132",NA,NA,"0.0147","0.025","0.0189","0.019","0.0192","0.0212","0.014","0.0141","0.0143"
"1728","0.0186","0.019","0.0224","0.0219","0.0233","0.0216","0.0129","0.0079","0.0197","0.0144","0.0155","0.0153","0.016","0.016",NA,NA,"0.0152","0.0295","0.0215","0.0212","0.0212","0.0261","0.0171","0.0173","0.0172"
"1712","0.0239","0.0241","0.0272","0.0268","0.0288","0.0269","0.0184","0.0122","0.0253","0.0192","0.0194","0.0189","0.0206","0.0207",NA,NA,"0.0164","0.0353","0.0273","0.0255","0.026","0.0323","0.022","0.0235","0.0223"
"1696","0.0329","0.0331","0.0362","0.0368","0.0394","0.0372","0.0297","0.0205","0.0359","0.0279","0.0268","0.0257","0.0294","0.0299",NA,NA,"0.0194","0.0462","0.038","0.0337","0.0357","0.044","0.0308","0.0352","0.0316"
"1680","0.0482","0.0484","0.0525","0.0539","0.0571","0.0551","0.0487","0.0354","0.0533","0.0425","0.0389","0.037","0.0442","0.045",NA,NA,"0.0263","0.0668","0.0557","0.0475","0.0519","0.0622","0.0464","0.0547","0.0478"
"1664","0.0675","0.0682","0.0734","0.0761","0.0796","0.0788","0.0744","0.0533","0.0743","0.0606","0.0539","0.0509","0.0626","0.0644",NA,NA,"0.0347","0.0919","0.0788","0.0649","0.0723","0.0856","0.0647","0.0786","0.0686"
"1648","0.0845","0.0864","0.0928","0.0962","0.1007","0.1015","0.1003","0.0695","0.0936","0.0775","0.0677","0.0634","0.079","0.0822",NA,NA,"0.0432","0.1141","0.1006","0.081","0.0915","0.1059","0.0807","0.1009","0.088"
"1632","0.0888","0.091","0.098","0.1015","0.1071","0.1093","0.1104","0.0726","0.0985","0.0831","0.0703","0.0657","0.0818","0.0869",NA,NA,"0.0463","0.1188","0.1066","0.0854","0.0963","0.1104","0.0843","0.1072","0.0936"
"1616","0.073","0.0733","0.0797","0.0831","0.0885","0.0898","0.0906","0.0549","0.0806","0.0669","0.0573","0.0527","0.0647","0.0699",NA,NA,"0.0416","0.0987","0.0857","0.0694","0.0785","0.0913","0.0677","0.0863","0.0745"
"1600","0.0542","0.0525","0.0584","0.0613","0.0652","0.0648","0.061","0.0355","0.0602","0.0479","0.0422","0.0387","0.0469","0.0502",NA,NA,"0.0335","0.0753","0.0609","0.0508","0.0571","0.0685","0.05","0.0619","0.0528"
"1584","0.0428","0.0406","0.0456","0.0483","0.0511","0.0497","0.0383","0.0242","0.0487","0.0368","0.0338","0.0308","0.0369","0.039",NA,NA,"0.028","0.0603","0.0472","0.0403","0.0453","0.055","0.0396","0.0481","0.0399"
"1568","0.0372","0.0352","0.0389","0.0411","0.0432","0.0418","0.0258","0.0185","0.0428","0.0315","0.0298","0.0273","0.0326","0.0337",NA,NA,"0.0246","0.0537","0.0409","0.0351","0.0389","0.046","0.0348","0.0425","0.0337"
"1552","0.0348","0.0327","0.0355","0.0377","0.0393","0.0383","0.0197","0.0156","0.0397","0.0286","0.0278","0.0256","0.0307","0.0314",NA,NA,"0.0222","0.0507","0.0382","0.0325","0.0357","0.0418","0.0321","0.04","0.031"
"1536","0.0319","0.0301","0.0327","0.0347","0.0364","0.0354","0.0152","0.0115","0.0364","0.0261","0.0257","0.0238","0.0291","0.0293",NA,NA,"0.0204","0.0483","0.0349","0.0302","0.0335","0.04","0.0288","0.0377","0.0285"
"1520","0.0287","0.0276","0.0296","0.0306","0.0326","0.0317","0.0108","0.0078","0.0321","0.0236","0.0236","0.0222","0.0271","0.0269",NA,NA,"0.0195","0.0439","0.0316","0.0283","0.0298","0.0344","0.0265","0.0346","0.0263"
"1504","0.0267","0.0259","0.0285","0.0288","0.0307","0.0302","0.0077","0.0047","0.0295","0.0222","0.0223","0.021","0.0263","0.0258",NA,NA,"0.0185","0.0414","0.0297","0.0273","0.0279","0.0329","0.0249","0.0323","0.0246"
"1488","0.0266","0.0266","0.03","0.0294","0.0315","0.0314","0.0074","0.0044","0.0294","0.0223","0.0227","0.0217","0.0285","0.027",NA,NA,"0.0203","0.0417","0.0305","0.0284","0.0288","0.0341","0.0257","0.033","0.0255"
"1472","0.0306","0.0312","0.036","0.0352","0.0359","0.0375","0.0107","0.0067","0.033","0.0245","0.0261","0.0244","0.0342","0.0311",NA,NA,"0.0246","0.0484","0.0358","0.0318","0.0337","0.0413","0.0287","0.0379","0.0294"
"1456","0.0328","0.0334","0.0394","0.0379","0.0379","0.0404","0.013","0.0081","0.0352","0.0258","0.0279","0.0262","0.038","0.0341",NA,NA,"0.0264","0.0529","0.0383","0.0331","0.0353","0.0421","0.0307","0.0408","0.0318"
"1440","0.0338","0.0343","0.0411","0.039","0.0388","0.0421","0.013","0.0085","0.0362","0.0271","0.0288","0.027","0.0403","0.0358",NA,NA,"0.0283","0.0535","0.0392","0.034","0.0358","0.0433","0.0323","0.0428","0.0329"
"1424","0.0357","0.0359","0.0442","0.0412","0.0411","0.0448","0.0164","0.0095","0.0387","0.029","0.0308","0.0286","0.0422","0.0381",NA,NA,"0.0302","0.0564","0.0413","0.0355","0.0375","0.0463","0.0343","0.0455","0.0348"
"1408","0.0367","0.0363","0.0443","0.0424","0.0416","0.0451","0.0173","0.0096","0.0401","0.0301","0.0314","0.0291","0.0413","0.0385",NA,NA,"0.0295","0.0551","0.0414","0.0355","0.0375","0.0469","0.0354","0.0455","0.0353"
"1392","0.0363","0.0363","0.0431","0.0417","0.0407","0.044","0.0159","0.0083","0.0387","0.0296","0.0308","0.0286","0.0391","0.0371",NA,NA,"0.0298","0.0517","0.0413","0.0353","0.0369","0.0455","0.0351","0.0437","0.035"
"1376","0.042","0.044","0.0508","0.0489","0.0461","0.0516","0.0206","0.0129","0.0424","0.0329","0.0353","0.0324","0.0444","0.0416",NA,NA,"0.0379","0.0544","0.0514","0.042","0.0441","0.0504","0.041","0.0509","0.0421"
"1360","0.04","0.042","0.0495","0.0469","0.0447","0.0495","0.0204","0.0103","0.0408","0.0317","0.034","0.0311","0.0418","0.0397",NA,NA,"0.0362","0.0517","0.0486","0.0403","0.042","0.0494","0.0396","0.0478","0.0404"
"1344","0.0369","0.0385","0.046","0.0431","0.0419","0.0454","0.0128","0.0062","0.0379","0.03","0.0315","0.029","0.038","0.0365",NA,NA,"0.0327","0.0484","0.0442","0.0374","0.039","0.0469","0.0362","0.0436","0.0371"
"1328","0.036","0.0377","0.0446","0.0417","0.0408","0.0439","0.007","0.0042","0.0363","0.0289","0.0305","0.0281","0.0364","0.0349",NA,NA,"0.0305","0.0471","0.0429","0.0366","0.0381","0.0457","0.0347","0.0422","0.0358"
"1312","0.0375","0.0396","0.046","0.0441","0.0426","0.0459","0.0082","0.0045","0.0376","0.0298","0.032","0.0292","0.0381","0.0362",NA,NA,"0.0292","0.0479","0.0453","0.0383","0.04","0.0456","0.0362","0.0432","0.0376"
"1296","0.0429","0.0457","0.0507","0.0512","0.0468","0.0531","0.0155","0.0082","0.0421","0.0335","0.0365","0.0338","0.0449","0.0414",NA,NA,"0.035","0.0482","0.0526","0.0433","0.045","0.0491","0.0419","0.0506","0.0441"
"1280","0.062","0.0671","0.0714","0.077","0.0648","0.0795","0.0539","0.0253","0.0596","0.0464","0.0535","0.0492","0.0699","0.0599",NA,NA,"0.0565","0.0587","0.0792","0.0607","0.0635","0.0576","0.0622","0.0788","0.067"
"1264","0.0887","0.0979","0.0999","0.1124","0.0896","0.1161","0.1106","0.0499","0.0843","0.0652","0.0764","0.0703","0.1056","0.0864",NA,NA,"0.0879","0.0736","0.1196","0.0857","0.0907","0.069","0.0902","0.1202","0.0999"
"1248","0.1","0.1108","0.1115","0.126","0.0988","0.1316","0.1384","0.0592","0.0936","0.0723","0.0849","0.0777","0.1172","0.0967",NA,NA,"0.1053","0.0852","0.1367","0.095","0.1018","0.0757","0.1014","0.1374","0.1128"
"1232","0.1083","0.1199","0.1206","0.1349","0.1056","0.1416","0.1551","0.0652","0.1006","0.0771","0.0908","0.0828","0.1251","0.1041",NA,NA,"0.1157","0.1054","0.1482","0.1011","0.1093","0.0815","0.1084","0.1486","0.1214"
"1216","0.1068","0.1153","0.118","0.1274","0.1037","0.1329","0.1463","0.0591","0.1","0.0735","0.086","0.0782","0.1159","0.0988",NA,NA,"0.1187","0.1102","0.1402","0.0962","0.1065","0.0886","0.1051","0.141","0.1148"
"1200","0.0927","0.0901","0.1015","0.1011","0.0903","0.0949","0.0798","0.0357","0.0916","0.0578","0.0675","0.0624","0.0876","0.0764",NA,NA,"0.0991","0.1164","0.1049","0.0794","0.0923","0.099","0.0882","0.1024","0.0864"
"1184","0.0886","0.0833","0.0987","0.0985","0.0913","0.081","0.0517","0.0264","0.0903","0.0511","0.0618","0.0571","0.0776","0.0682",NA,NA,"0.0895","0.135","0.0949","0.0791","0.0946","0.1218","0.0833","0.0815","0.0765"
"1168","0.1024","0.0984","0.1193","0.1176","0.1099","0.0941","0.0646","0.0352","0.1007","0.0572","0.0707","0.0649","0.0896","0.0779",NA,NA,"0.092","0.1685","0.1115","0.0942","0.115","0.1606","0.0956","0.0934","0.0887"
"1152","0.117","0.112","0.1485","0.1377","0.1286","0.1055","0.0888","0.0435","0.1163","0.0651","0.0805","0.0737","0.1015","0.0882",NA,NA,"0.1099","0.2195","0.1254","0.1089","0.1354","0.2034","0.1116","0.1086","0.1007"
"1136","0.1123","0.1011","0.1391","0.1316","0.127","0.0904","0.0774","0.0367","0.117","0.061","0.0756","0.0702","0.0928","0.0813",NA,NA,"0.0997","0.2361","0.1114","0.1037","0.133","0.2156","0.1122","0.094","0.0909"
"1120","0.1335","0.1202","0.1628","0.1491","0.1463","0.1022","0.0789","0.0512","0.1389","0.0714","0.0891","0.0825","0.11","0.0951",NA,NA,"0.1084","0.2767","0.1342","0.1189","0.1534","0.2342","0.1362","0.1073","0.1073"
"1104","0.1328","0.1173","0.166","0.1449","0.1468","0.1","0.0654","0.05","0.1423","0.0705","0.0902","0.0828","0.1079","0.094",NA,NA,"0.094","0.3128","0.1291","0.1143","0.1513","0.2328","0.1402","0.1019","0.1041"
"1088","0.1491","0.1411","0.1752","0.1664","0.1575","0.1347","0.0958","0.0706","0.1493","0.0852","0.1061","0.097","0.1359","0.1141",NA,NA,"0.1322","0.2917","0.1623","0.1299","0.1674","0.2409","0.1577","0.1433","0.1292"
"1072","0.1868","0.189","0.2147","0.2149","0.1873","0.1904","0.1485","0.106","0.173","0.1092","0.137","0.1254","0.1887","0.1498",NA,NA,"0.1918","0.2781","0.2273","0.1658","0.2025","0.264","0.1889","0.2006","0.1764"
"1056","0.1823","0.1806","0.2151","0.203","0.181","0.184","0.1406","0.0945","0.1683","0.1035","0.1319","0.1172","0.1751","0.1435",NA,NA,"0.2027","0.2986","0.2165","0.1529","0.1872","0.2475","0.1723","0.189","0.1667"
"1040","0.2025","0.2031","0.2415","0.2268","0.1983","0.2057","0.1706","0.1078","0.186","0.111","0.1449","0.1286","0.1954","0.159",NA,NA,"0.2232","0.3207","0.245","0.1691","0.2054","0.2407","0.1872","0.2132","0.1864"
"1024","0.1896","0.1878","0.2417","0.2162","0.1891","0.2014","0.2043","0.0921","0.1773","0.0997","0.1353","0.1161","0.173","0.1479",NA,NA,"0.1956","0.3095","0.2221","0.1507","0.1829","0.2133","0.1726","0.1908","0.1701"
"1008","0.1456","0.1345","0.1971","0.1633","0.1501","0.1583","0.1761","0.0528","0.1469","0.0764","0.1051","0.0868","0.124","0.1119",NA,NA,"0.1418","0.2742","0.1527","0.1081","0.1346","0.1699","0.1291","0.1389","0.123"
"992","0.1177","0.105","0.1568","0.1282","0.1215","0.1296","0.1125","0.0316","0.1213","0.0632","0.0847","0.0691","0.0951","0.0893",NA,NA,"0.1095","0.2232","0.1177","0.0869","0.1084","0.1453","0.1041","0.1112","0.0956"
"976","0.0989","0.0896","0.116","0.1052","0.0992","0.1109","0.0573","0.0219","0.1005","0.0592","0.0731","0.0614","0.0849","0.0792",NA,NA,"0.1038","0.1558","0.1045","0.0762","0.0909","0.1134","0.087","0.1032","0.0849"
"960","0.0812","0.074","0.0927","0.0873","0.0846","0.086","0.0158","0.0062","0.0822","0.0501","0.0589","0.0504","0.0676","0.065",NA,NA,"0.0834","0.1345","0.0849","0.0656","0.0798","0.1044","0.0704","0.0801","0.0687"
"944","0.0924","0.0871","0.1089","0.1016","0.0979","0.0901","0.0135","0.0123","0.0906","0.0556","0.066","0.0585","0.079","0.0732",NA,NA,"0.093","0.1761","0.0982","0.0791","0.0976","0.1321","0.0833","0.0884","0.0798"
"928","0.1497","0.1509","0.1665","0.1645","0.1448","0.1461","0.0436","0.0576","0.1351","0.0869","0.1058","0.0967","0.1404","0.1189",NA,NA,"0.1689","0.2309","0.1792","0.1325","0.1591","0.1797","0.1426","0.1574","0.1384"
"912","0.1479","0.1482","0.1632","0.1598","0.1442","0.1332","0.0302","0.0492","0.1336","0.0794","0.0987","0.0889","0.1232","0.1113",NA,NA,"0.1418","0.2539","0.1757","0.1322","0.1625","0.1765","0.1426","0.1404","0.1303"
"896","0.1294","0.1258","0.1455","0.1362","0.1294","0.1136","0.0246","0.0295","0.12","0.0704","0.0853","0.0763","0.1026","0.0955",NA,NA,"0.1138","0.2371","0.1454","0.1116","0.1393","0.1732","0.1209","0.1143","0.109"
"880","0.1111","0.1039","0.1189","0.112","0.1093","0.0972","0.012","0.0124","0.1047","0.0637","0.0712","0.0651","0.0876","0.0833",NA,NA,"0.0952","0.178","0.1192","0.0919","0.1148","0.142","0.101","0.0952","0.0903"
"864","0.099","0.0976","0.1107","0.1073","0.1021","0.1003","0.0061","0.0089","0.0955","0.0651","0.0703","0.0642","0.0855","0.0816",NA,NA,"0.0913","0.1507","0.1138","0.0884","0.1053","0.1269","0.0948","0.0998","0.0892"
"848","0.132","0.1387","0.142","0.1469","0.1285","0.1428","0.0299","0.0408","0.121","0.0874","0.0978","0.0902","0.1258","0.1134",NA,NA,"0.1466","0.1501","0.1671","0.122","0.1379","0.1255","0.1293","0.1501","0.1295"
"832","0.1053","0.1037","0.1205","0.1196","0.1135","0.1176","0.045","0.0129","0.1076","0.0741","0.0794","0.0713","0.0924","0.0912",NA,NA,"0.1129","0.1468","0.1217","0.0931","0.1082","0.1209","0.1028","0.1141","0.0997"
"816","0.0965","0.0949","0.1149","0.1117","0.1106","0.1099","0.0259","0.0038","0.1032","0.0733","0.0742","0.0669","0.0867","0.0863",NA,NA,"0.0796","0.1464","0.111","0.0871","0.1019","0.1248","0.0941","0.1062","0.0933"
"800","0.1089","0.1102","0.1247","0.124","0.1214","0.1238","0.0111","0.0106","0.1113","0.0825","0.0829","0.0758","0.0996","0.0979",NA,NA,"0.078","0.1508","0.1295","0.0987","0.1141","0.1357","0.1043","0.1218","0.107"
"784","0.1062","0.1061","0.1267","0.1234","0.1239","0.1236","0.0087","0.0042","0.1136","0.0846","0.0825","0.0751","0.0976","0.0971",NA,NA,"0.0745","0.1571","0.1248","0.0984","0.114","0.1469","0.1035","0.1202","0.105"
"768","0.1134","0.1148","0.1385","0.1333","0.1339","0.1339","0.014","0.0064","0.1223","0.0917","0.0895","0.0812","0.1059","0.1049",NA,NA,"0.0866","0.1727","0.1345","0.1068","0.123","0.157","0.1112","0.1303","0.1135"
"752","0.1221","0.1247","0.15","0.1434","0.1452","0.1424","0.0099","0.0078","0.1318","0.0983","0.0965","0.0877","0.1149","0.1125",NA,NA,"0.0884","0.1921","0.1456","0.1167","0.135","0.1686","0.1198","0.1402","0.1225"
"736","0.1489","0.1542","0.1734","0.1714","0.1675","0.171","0.0173","0.0245","0.1532","0.1151","0.1155","0.1062","0.1417","0.135",NA,NA,"0.1228","0.2033","0.1833","0.1412","0.1621","0.1839","0.1455","0.1719","0.15"
"720","0.156","0.1609","0.1823","0.1797","0.1768","0.1812","0.0252","0.0234","0.162","0.1214","0.1214","0.1115","0.1489","0.1427",NA,NA,"0.1184","0.2114","0.1911","0.1445","0.1684","0.1983","0.1517","0.1806","0.1582"
"704","0.1702","0.1798","0.1985","0.1971","0.1904","0.201","0.0254","0.0329","0.1734","0.1336","0.1343","0.1234","0.1671","0.1584",NA,NA,"0.1515","0.2182","0.216","0.1626","0.1848","0.1974","0.1686","0.2041","0.1764"
"688","0.1606","0.1666","0.191","0.186","0.1857","0.1922","0.0177","0.0173","0.1696","0.1304","0.1275","0.1164","0.1537","0.1513",NA,NA,"0.1358","0.2219","0.1999","0.1522","0.1753","0.2003","0.1586","0.1912","0.1657"
"672","0.1598","0.1665","0.1948","0.1876","0.1895","0.1955","0.0124","0.0105","0.1718","0.133","0.1287","0.1174","0.1549","0.1525",NA,NA,"0.1269","0.2284","0.1984","0.1527","0.1759","0.2063","0.1592","0.1917","0.1668"
"656","0.1636","0.1703","0.2003","0.1921","0.1963","0.2039","0.0085","0.0079","0.1769","0.1381","0.1328","0.1212","0.1598","0.1576",NA,NA,"0.1286","0.236","0.2037","0.1574","0.1807","0.2125","0.1639","0.2029","0.1719"
"640","0.1683","0.1755","0.2071","0.1985","0.2041","0.2104","0.0069","0.0056","0.1833","0.1436","0.1374","0.1248","0.165","0.1623",NA,NA,"0.1335","0.2455","0.2093","0.1617","0.1857","0.2204","0.1682","0.2064","0.1777"
"624","0.1878","0.1949","0.2313","0.2228","0.2251","0.2334","0.0343","0.0164","0.2084","0.1568","0.1563","0.1421","0.1878","0.1807",NA,NA,"0.1508","0.2736","0.233","0.18","0.2048","0.2378","0.1943","0.2258","0.1978"
"608","0.2095","0.2165","0.2566","0.2453","0.2471","0.2571","0.0462","0.0273","0.2284","0.1696","0.1712","0.1557","0.2092","0.1988",NA,NA,"0.18","0.3013","0.2599","0.1964","0.225","0.2547","0.2127","0.2556","0.2192"
"592","0.2201","0.2259","0.2697","0.2565","0.2621","0.2667","0.0439","0.0261","0.2391","0.1763","0.1767","0.1606","0.2153","0.2057",NA,NA,"0.177","0.3306","0.2701","0.2061","0.2397","0.2813","0.2206","0.2652","0.2268"
"576","0.2437","0.2495","0.3037","0.2878","0.2914","0.2887","0.0767","0.0363","0.2651","0.1903","0.1946","0.1758","0.2375","0.2248",NA,NA,"0.1923","0.3862","0.2977","0.2284","0.2685","0.3274","0.2444","0.2849","0.2494"
"560","0.2609","0.2608","0.3234","0.2995","0.3106","0.2918","0.0678","0.0354","0.2845","0.1962","0.2004","0.1798","0.2413","0.2317",NA,NA,"0.189","0.4457","0.311","0.2363","0.286","0.3615","0.2562","0.2862","0.257"
"544","0.2648","0.267","0.3259","0.3071","0.3177","0.3002","0.0571","0.0351","0.2846","0.2027","0.2024","0.184","0.2461","0.2369",NA,NA,"0.1949","0.4553","0.3211","0.2452","0.2958","0.3748","0.2655","0.2925","0.2636"
"528","0.2576","0.2625","0.3201","0.3034","0.3142","0.3023","0.0392","0.0244","0.2777","0.2047","0.1993","0.1809","0.2401","0.2354",NA,NA,"0.1924","0.4342","0.3179","0.2426","0.2909","0.3691","0.2602","0.2915","0.2622"
"512","0.2583","0.2658","0.317","0.3048","0.3152","0.3072","0.0292","0.0226","0.277","0.209","0.1998","0.1818","0.2437","0.2379",NA,NA,"0.1984","0.4183","0.3223","0.2443","0.2934","0.3677","0.262","0.2982","0.2666"
"496","0.262","0.2679","0.3221","0.3033","0.3167","0.3082","0.0235","0.0152","0.2827","0.2114","0.2009","0.1833","0.2444","0.2406",NA,NA,"0.1975","0.4307","0.3251","0.2412","0.2902","0.3564","0.2625","0.3008","0.2691"
"480","0.2666","0.2729","0.3311","0.3084","0.323","0.315","0.0235","0.0121","0.2859","0.2177","0.2038","0.186","0.2494","0.2438",NA,NA,"0.2066","0.4399","0.3317","0.2467","0.2948","0.3627","0.2645","0.3069","0.2729"
"464","0.2694","0.2783","0.3296","0.3109","0.324","0.324","0.0087","0.0064","0.29","0.2214","0.206","0.1873","0.2521","0.245",NA,NA,"0.2064","0.4361","0.3391","0.2466","0.2955","0.3571","0.2691","0.3149","0.2775"
"450","0.2713","0.2768","0.3334","0.3156","0.3303","0.3412","0.0044","0.0051","0.2915","0.2243","0.208","0.1894","0.256","0.2539",NA,NA,"0.2127","0.4233","0.3438","0.2517","0.2984","0.3541","0.27","0.3257","0.2808"